# Normalized Absorption: Au300K                                  
#  
# No. of glitches: --- to be done ---
#  
# No. of sec.edges:    0
#   A_nor = (abs - pre_edge - multiple_edges)/jump:#        Normalized absorption used for EXAFS estraction
#   A_0   = (abs - pre_edge)/jump#        Absorption - PreEdge only
#   SPL_nor = (SPL )/jump#        splines used to fit A_nor
#   SPL_ME_nor = (SPL + multiple_edges)/jump#        splines fitting A_0
#  1_E   2_A_nor   3_A_0   4_SPL_nor   5_SPL_ME_nor
  11650.268  0.291002E-02  0.291002E-02   0.00000       0.00000     
  11660.297  0.258543E-02  0.258543E-02   0.00000       0.00000     
  11670.395  0.197018E-02  0.197018E-02   0.00000       0.00000     
  11680.492  0.133803E-02  0.133803E-02   0.00000       0.00000     
  11690.622  0.946560E-03  0.946560E-03   0.00000       0.00000     
  11700.745  0.542198E-03  0.542198E-03   0.00000       0.00000     
  11710.879  0.132748E-03  0.132748E-03   0.00000       0.00000     
  11721.002 -0.264169E-03 -0.264169E-03   0.00000       0.00000     
  11731.184 -0.867426E-03 -0.867426E-03   0.00000       0.00000     
  11741.446 -0.127324E-02 -0.127324E-02   0.00000       0.00000     
  11751.590 -0.170034E-02 -0.170034E-02   0.00000       0.00000     
  11761.818 -0.188361E-02 -0.188361E-02   0.00000       0.00000     
  11772.071 -0.196384E-02 -0.196384E-02   0.00000       0.00000     
  11782.396 -0.224668E-02 -0.224668E-02   0.00000       0.00000     
  11792.748 -0.244473E-02 -0.244473E-02   0.00000       0.00000     
  11803.050 -0.269587E-02 -0.269587E-02   0.00000       0.00000     
  11813.398 -0.289583E-02 -0.289583E-02   0.00000       0.00000     
  11823.770 -0.266979E-02 -0.266979E-02   0.00000       0.00000     
  11834.098 -0.239159E-02 -0.239159E-02   0.00000       0.00000     
  11844.629 -0.178409E-02 -0.178409E-02   0.00000       0.00000     
  11855.054 -0.804487E-03 -0.804487E-03   0.00000       0.00000     
  11865.483  0.840063E-03  0.840063E-03   0.00000       0.00000     
  11875.852  0.399674E-02  0.399674E-02   0.00000       0.00000     
  11886.376  0.106237E-01  0.106237E-01   0.00000       0.00000     
  11896.778  0.266949E-01  0.266949E-01   0.00000       0.00000     
  11900.986  0.411144E-01  0.411144E-01   0.00000       0.00000     
  11901.994  0.456776E-01  0.456776E-01   0.00000       0.00000     
  11902.965  0.508736E-01  0.508736E-01   0.00000       0.00000     
  11903.960  0.573955E-01  0.573955E-01   0.00000       0.00000     
  11904.949  0.653688E-01  0.653688E-01   0.00000       0.00000     
  11906.002  0.767324E-01  0.767324E-01   0.00000       0.00000     
  11906.993  0.912578E-01  0.912578E-01   0.00000       0.00000     
  11908.036  0.113993      0.113993       0.00000       0.00000     
  11909.042  0.142665      0.142665       0.00000       0.00000     
  11910.037  0.179523      0.179523       0.00000       0.00000     
  11911.046  0.231738      0.231738       0.00000       0.00000     
  11912.040  0.301725      0.301725       0.00000       0.00000     
  11913.007  0.391129      0.391129       0.00000       0.00000     
  11914.000  0.487244      0.487244       0.00000       0.00000     
  11915.043  0.589018      0.589018       0.00000       0.00000     
  11916.097  0.671589      0.671589       0.00000       0.00000     
  11917.117  0.728259      0.728259       0.00000       0.00000     
  11918.101  0.760374      0.760374       0.00000       0.00000     
  11919.161  0.774396      0.774396       0.00000       0.00000     
  11920.137  0.777647      0.777647       1.14718       1.14718     
  11921.191  0.781867      0.781867       1.12840       1.12840     
  11922.196  0.791674      0.791674       1.11857       1.11857     
  11923.195  0.806351      0.806351       1.11105       1.11105     
  11924.180  0.823989      0.823989       1.10484       1.10484     
  11925.213  0.843606      0.843606       1.09919       1.09919     
  11926.237  0.859256      0.859256       1.09421       1.09421     
  11927.251  0.871095      0.871095       1.08973       1.08973     
  11928.229  0.879395      0.879395       1.08577       1.08577     
  11929.276  0.885312      0.885312       1.08184       1.08184     
  11930.279  0.889499      0.889499       1.07833       1.07833     
  11931.290  0.894815      0.894815       1.07501       1.07501     
  11932.270  0.902721      0.902721       1.07198       1.07198     
  11933.267  0.911811      0.911811       1.06906       1.06906     
  11934.260  0.919480      0.919480       1.06629       1.06629     
  11935.318  0.930190      0.930190       1.06349       1.06349     
  11936.369  0.949767      0.949767       1.06084       1.06084     
  11937.397  0.978570      0.978570       1.05837       1.05837     
  11938.460   1.01101       1.01101       1.05592       1.05592     
  11939.445   1.03852       1.03852       1.05374       1.05374     
  11940.483   1.05605       1.05605       1.05154       1.05154     
  11941.490   1.06095       1.06095       1.04948       1.04948     
  11942.530   1.05105       1.05105       1.04744       1.04744     
  11943.548   1.03215       1.03215       1.04551       1.04551     
  11944.547   1.00860       1.00860       1.04368       1.04368     
  11945.593  0.990194      0.990194       1.04183       1.04183     
  11946.605  0.980999      0.980999       1.04010       1.04010     
  11947.646  0.977198      0.977198       1.03838       1.03838     
  11948.727  0.974545      0.974545       1.03666       1.03666     
  11949.787  0.970531      0.970531       1.03502       1.03502     
  11950.836  0.965757      0.965757       1.03345       1.03345     
  11951.863  0.962205      0.962205       1.03196       1.03196     
  11952.947  0.960996      0.960996       1.03044       1.03044     
  11953.972  0.963320      0.963320       1.02905       1.02905     
  11955.025  0.969998      0.969998       1.02766       1.02766     
  11956.036  0.979873      0.979873       1.02636       1.02636     
  11957.036  0.992513      0.992513       1.02511       1.02511     
  11958.099   1.00845       1.00845       1.02383       1.02383     
  11959.131   1.02253       1.02253       1.02261       1.02261     
  11960.161   1.03495       1.03495       1.02144       1.02144     
  11961.199   1.04576       1.04576       1.02028       1.02028     
  11962.291   1.05417       1.05417       1.01910       1.01910     
  11963.353   1.05864       1.05864       1.01799       1.01799     
  11964.358   1.05922       1.05922       1.01697       1.01697     
  11965.419   1.05701       1.05701       1.01592       1.01592     
  11966.424   1.05208       1.05208       1.01495       1.01495     
  11967.424   1.04554       1.04554       1.01401       1.01401     
  11968.425   1.03889       1.03889       1.01309       1.01309     
  11969.429   1.03186       1.03186       1.01220       1.01220     
  11970.492   1.02496       1.02496       1.01128       1.01128     
  11971.511   1.01951       1.01951       1.01042       1.01042     
  11972.508   1.01480       1.01480       1.00961       1.00961     
  11973.522   1.01089       1.01089       1.00880       1.00880     
  11974.568   1.00715       1.00715       1.00798       1.00798     
  11975.571   1.00459       1.00459       1.00723       1.00723     
  11976.629   1.00223       1.00223       1.00645       1.00645     
  11977.642  0.999994      0.999994       1.00573       1.00573     
  11978.700  0.997330      0.997330       1.00499       1.00499     
  11979.753  0.993442      0.993442       1.00428       1.00428     
  11980.786  0.988588      0.988588       1.00360       1.00360     
  11981.785  0.983655      0.983655       1.00297       1.00297     
  11982.852  0.977514      0.977514       1.00231       1.00231     
  11983.864  0.973035      0.973035       1.00170       1.00170     
  11984.925  0.970613      0.970613       1.00108       1.00108     
  11985.935  0.969514      0.969514       1.00050       1.00050     
  11986.981  0.969324      0.969324      0.999926      0.999926     
  11988.049  0.969938      0.969938      0.999356      0.999356     
  11989.074  0.971268      0.971268      0.998824      0.998824     
  11990.106  0.972657      0.972657      0.998305      0.998305     
  11991.145  0.974517      0.974517      0.997798      0.997798     
  11992.155  0.977564      0.977564      0.997321      0.997321     
  11993.193  0.980864      0.980864      0.996845      0.996845     
  11994.231  0.985353      0.985353      0.996385      0.996385     
  11995.251  0.991152      0.991152      0.995947      0.995947     
  11996.316  0.997244      0.997244      0.995505      0.995505     
  11997.379   1.00258       1.00258      0.995078      0.995078     
  11998.423   1.00741       1.00741      0.994674      0.994674     
  11999.520   1.01131       1.01131      0.994264      0.994264     
  12002.016   1.01666       1.01666      0.993388      0.993388     
  12004.035   1.01736       1.01736      0.992735      0.992735     
  12006.029   1.01511       1.01511      0.992137      0.992137     
  12008.055   1.01064       1.01064      0.991576      0.991576     
  12010.112   1.00617       1.00617      0.991053      0.991053     
  12012.189   1.00270       1.00270      0.990572      0.990572     
  12014.278   1.00026       1.00026      0.990133      0.990133     
  12016.363  0.999063      0.999063      0.989741      0.989741     
  12018.449  0.998602      0.998602      0.989391      0.989391     
  12020.534  0.998883      0.998883      0.989083      0.989083     
  12022.621  0.999043      0.999043      0.988817      0.988817     
  12024.722  0.998741      0.998741      0.988589      0.988589     
  12026.793  0.997715      0.997715      0.988403      0.988403     
  12028.843  0.995669      0.995669      0.988256      0.988256     
  12030.864  0.992376      0.992376      0.988147      0.988147     
  12032.875  0.988349      0.988349      0.988073      0.988073     
  12034.923  0.983808      0.983808      0.988031      0.988031     
  12036.947  0.980337      0.980337      0.988023      0.988023     
  12039.028  0.977668      0.977668      0.988049      0.988049     
  12041.134  0.975637      0.975637      0.988109      0.988109     
  12043.150  0.974702      0.974702      0.988198      0.988198     
  12045.207  0.975124      0.975124      0.988320      0.988320     
  12047.240  0.977172      0.977172      0.988471      0.988471     
  12049.301  0.979882      0.979882      0.988654      0.988654     
  12051.430  0.982954      0.982954      0.988875      0.988875     
  12053.503  0.985520      0.985520      0.989120      0.989120     
  12055.574  0.988093      0.988093      0.989393      0.989393     
  12057.575  0.990401      0.990401      0.989684      0.989684     
  12059.676  0.992712      0.992712      0.989978      0.989978     
  12061.751  0.994216      0.994216      0.990241      0.990241     
  12063.814  0.995446      0.995446      0.990477      0.990477     
  12065.877  0.996466      0.996466      0.990689      0.990689     
  12067.957  0.997495      0.997495      0.990878      0.990878     
  12070.045  0.998071      0.998071      0.991044      0.991044     
  12072.168  0.997692      0.997692      0.991189      0.991189     
  12074.208  0.997630      0.997630      0.991308      0.991308     
  12076.313  0.997422      0.997422      0.991410      0.991410     
  12078.456  0.997656      0.997656      0.991493      0.991493     
  12080.537  0.998170      0.998170      0.991554      0.991554     
  12082.633  0.999110      0.999110      0.991596      0.991596     
  12084.744  0.999999      0.999999      0.991621      0.991621     
  12086.799   1.00037       1.00037      0.991629      0.991629     
  12088.905   1.00005       1.00005      0.991620      0.991620     
  12091.015  0.998993      0.998993      0.991595      0.991595     
  12093.101  0.996861      0.996861      0.991555      0.991555     
  12095.178  0.993604      0.993604      0.991501      0.991501     
  12097.280  0.988932      0.988932      0.991432      0.991432     
  12099.392  0.985089      0.985089      0.991349      0.991349     
  12101.522  0.982267      0.982267      0.991252      0.991252     
  12103.642  0.980529      0.980529      0.991143      0.991143     
  12105.757  0.979483      0.979483      0.991023      0.991023     
  12107.874  0.978569      0.978569      0.990890      0.990890     
  12109.936  0.977514      0.977514      0.990751      0.990751     
  12112.046  0.977348      0.977348      0.990597      0.990597     
  12114.170  0.977278      0.977278      0.990433      0.990433     
  12116.337  0.977524      0.977524      0.990255      0.990255     
  12118.396  0.978055      0.978055      0.990077      0.990077     
  12120.534  0.978895      0.978895      0.989884      0.989884     
  12122.611  0.980054      0.980054      0.989688      0.989688     
  12124.719  0.981932      0.981932      0.989481      0.989481     
  12126.788  0.984032      0.984032      0.989271      0.989271     
  12128.969  0.986174      0.986174      0.989042      0.989042     
  12131.058  0.988599      0.988599      0.988816      0.988816     
  12133.157  0.991283      0.991283      0.988582      0.988582     
  12135.283  0.994254      0.994254      0.988340      0.988340     
  12137.396  0.997052      0.997052      0.988093      0.988093     
  12139.465  0.999126      0.999126      0.987846      0.987846     
  12141.647   1.00073       1.00073      0.987580      0.987580     
  12143.719   1.00152       1.00152      0.987323      0.987323     
  12145.780   1.00162       1.00162      0.987063      0.987063     
  12147.879   1.00105       1.00105      0.986795      0.986795     
  12149.965  0.999282      0.999282      0.986524      0.986524     
  12152.051  0.997373      0.997373      0.986249      0.986249     
  12154.148  0.995180      0.995180      0.985970      0.985970     
  12156.288  0.992850      0.992850      0.985682      0.985682     
  12158.387  0.990014      0.990014      0.985397      0.985397     
  12160.440  0.986655      0.986655      0.985116      0.985116     
  12162.559  0.982742      0.982742      0.984823      0.984823     
  12164.736  0.979994      0.979994      0.984520      0.984520     
  12166.911  0.977516      0.977516      0.984215      0.984215     
  12169.049  0.976063      0.976063      0.983914      0.983914     
  12171.224  0.975157      0.975157      0.983607      0.983607     
  12173.330  0.974790      0.974790      0.983307      0.983307     
  12175.457  0.975000      0.975000      0.983004      0.983004     
  12177.561  0.975535      0.975535      0.982704      0.982704     
  12179.701  0.976309      0.976309      0.982398      0.982398     
  12181.878  0.976895      0.976895      0.982086      0.982086     
  12183.956  0.977174      0.977174      0.981788      0.981788     
  12186.023  0.976964      0.976964      0.981492      0.981492     
  12188.127  0.976255      0.976255      0.981191      0.981191     
  12190.216  0.975550      0.975550      0.980892      0.980892     
  12192.324  0.975258      0.975258      0.980591      0.980591     
  12194.510  0.975041      0.975041      0.980280      0.980280     
  12196.596  0.975545      0.975545      0.979984      0.979984     
  12198.647  0.976386      0.976386      0.979693      0.979693     
  12200.748  0.977593      0.977593      0.979397      0.979397     
  12202.894  0.979005      0.979005      0.979096      0.979096     
  12205.004  0.980452      0.980452      0.978802      0.978802     
  12207.122  0.981649      0.981649      0.978508      0.978508     
  12209.249  0.983101      0.983101      0.978215      0.978215     
  12211.369  0.984411      0.984411      0.977925      0.977925     
  12213.554  0.985484      0.985484      0.977628      0.977628     
  12215.701  0.986337      0.986337      0.977339      0.977339     
  12217.805  0.986891      0.986891      0.977057      0.977057     
  12219.928  0.987003      0.987003      0.976776      0.976776     
  12222.061  0.986672      0.986672      0.976496      0.976496     
  12224.168  0.985623      0.985623      0.976222      0.976222     
  12226.275  0.984166      0.984166      0.975951      0.975951     
  12228.399  0.981892      0.981892      0.975681      0.975681     
  12230.538  0.979962      0.979962      0.975411      0.975411     
  12232.596  0.977810      0.977810      0.975151      0.975151     
  12234.810  0.976045      0.976045      0.974870      0.974870     
  12236.963  0.974012      0.974012      0.974598      0.974598     
  12239.094  0.972229      0.972229      0.974327      0.974327     
  12241.255  0.970743      0.970743      0.974053      0.974053     
  12243.410  0.969886      0.969886      0.973779      0.973779     
  12245.497  0.969228      0.969228      0.973513      0.973513     
  12247.637  0.968908      0.968908      0.973240      0.973240     
  12249.806  0.968713      0.968713      0.972963      0.972963     
  12251.914  0.968633      0.968633      0.972694      0.972694     
  12254.047  0.968254      0.968254      0.972421      0.972421     
  12256.169  0.968003      0.968003      0.972150      0.972150     
  12258.292  0.968156      0.968156      0.971878      0.971878     
  12260.525  0.968206      0.968206      0.971592      0.971592     
  12262.689  0.968113      0.968113      0.971314      0.971314     
  12264.821  0.967958      0.967958      0.971040      0.971040     
  12266.972  0.967429      0.967429      0.970764      0.970764     
  12269.107  0.966848      0.966848      0.970489      0.970489     
  12271.304  0.966682      0.966682      0.970206      0.970206     
  12273.475  0.966399      0.966399      0.969926      0.969926     
  12275.655  0.966581      0.966581      0.969645      0.969645     
  12277.822  0.966638      0.966638      0.969365      0.969365     
  12280.013  0.966827      0.966827      0.969081      0.969081     
  12282.135  0.967415      0.967415      0.968807      0.968807     
  12284.288  0.968205      0.968205      0.968528      0.968528     
  12286.499  0.968782      0.968782      0.968241      0.968241     
  12288.716  0.969314      0.969314      0.967954      0.967954     
  12290.810  0.969790      0.969790      0.967682      0.967682     
  12292.962  0.969948      0.969948      0.967402      0.967402     
  12295.070  0.970273      0.970273      0.967128      0.967128     
  12297.304  0.970444      0.970444      0.966838      0.966838     
  12299.467  0.970537      0.970537      0.966556      0.966556     
  12301.671  0.970904      0.970904      0.966269      0.966269     
  12303.868  0.970789      0.970789      0.965982      0.965982     
  12306.021  0.970687      0.970687      0.965701      0.965701     
  12308.165  0.970309      0.970309      0.965421      0.965421     
  12310.312  0.969900      0.969900      0.965140      0.965140     
  12312.544  0.969408      0.969408      0.964848      0.964848     
  12314.709  0.968844      0.968844      0.964565      0.964565     
  12316.899  0.967712      0.967712      0.964278      0.964278     
  12319.100  0.966256      0.966256      0.963990      0.963990     
  12321.359  0.964782      0.964782      0.963693      0.963693     
  12323.528  0.963402      0.963402      0.963409      0.963409     
  12325.654  0.962168      0.962168      0.963129      0.963129     
  12327.870  0.960966      0.960966      0.962838      0.962838     
  12330.085  0.959847      0.959847      0.962547      0.962547     
  12332.268  0.958471      0.958471      0.962259      0.962259     
  12334.369  0.957576      0.957576      0.961983      0.961983     
  12336.528  0.957105      0.957105      0.961698      0.961698     
  12338.693  0.956731      0.956731      0.961413      0.961413     
  12340.927  0.956671      0.956671      0.961118      0.961118     
  12343.060  0.956423      0.956423      0.960836      0.960836     
  12345.190  0.956424      0.956424      0.960555      0.960555     
  12347.397  0.956380      0.956380      0.960263      0.960263     
  12349.541  0.956462      0.956462      0.959980      0.959980     
  12351.749  0.956838      0.956838      0.959688      0.959688     
  12354.005  0.956945      0.956945      0.959389      0.959389     
  12356.131  0.957156      0.957156      0.959107      0.959107     
  12358.279  0.957242      0.957242      0.958822      0.958822     
  12360.427  0.957349      0.957349      0.958537      0.958537     
  12362.609  0.957629      0.957629      0.958248      0.958248     
  12364.825  0.957915      0.957915      0.957954      0.957954     
  12367.031  0.958077      0.958077      0.957661      0.957661     
  12369.249  0.958229      0.958229      0.957366      0.957366     
  12371.455  0.958333      0.958333      0.957072      0.957072     
  12373.668  0.958211      0.958211      0.956778      0.956778     
  12375.895  0.958088      0.958088      0.956481      0.956481     
  12378.050  0.958092      0.958092      0.956195      0.956195     
  12380.275  0.958019      0.958019      0.955898      0.955898     
  12382.453  0.958020      0.958020      0.955608      0.955608     
  12384.575  0.957897      0.957897      0.955324      0.955324     
  12386.791  0.957621      0.957621      0.955029      0.955029     
  12388.968  0.957368      0.957368      0.954738      0.954738     
  12391.176  0.957222      0.957222      0.954443      0.954443     
  12393.404  0.957194      0.957194      0.954145      0.954145     
  12395.627  0.956845      0.956845      0.953848      0.953848     
  12397.839  0.956417      0.956417      0.953552      0.953552     
  12400.063  0.955561      0.955561      0.953255      0.953255     
  12403.051  0.954737      0.954737      0.952855      0.952855     
  12406.164  0.954065      0.954065      0.952437      0.952437     
  12409.205  0.953295      0.953295      0.952030      0.952030     
  12412.243  0.952352      0.952352      0.951622      0.951622     
  12415.317  0.951259      0.951259      0.951210      0.951210     
  12418.499  0.950460      0.950460      0.950782      0.950782     
  12421.593  0.949788      0.949788      0.950367      0.950367     
  12424.701  0.948976      0.948976      0.949949      0.949949     
  12427.715  0.947894      0.947894      0.949543      0.949543     
  12430.787  0.947245      0.947245      0.949130      0.949130     
  12433.975  0.946576      0.946576      0.948701      0.948701     
  12437.062  0.946016      0.946016      0.948284      0.948284     
  12440.176  0.945178      0.945178      0.947865      0.947865     
  12443.252  0.944766      0.944766      0.947450      0.947450     
  12446.363  0.944548      0.944548      0.947030      0.947030     
  12449.409  0.944532      0.944532      0.946619      0.946619     
  12452.498  0.944436      0.944436      0.946201      0.946201     
  12455.622  0.944008      0.944008      0.945779      0.945779     
  12458.765  0.944038      0.944038      0.945354      0.945354     
  12462.000  0.944042      0.944042      0.944917      0.944917     
  12465.089  0.944044      0.944044      0.944499      0.944499     
  12468.175  0.943860      0.943860      0.944081      0.944081     
  12471.293  0.943787      0.943787      0.943659      0.943659     
  12474.470  0.943891      0.943891      0.943230      0.943230     
  12477.641  0.943919      0.943919      0.942802      0.942802     
  12480.736  0.943757      0.943757      0.942386      0.942386     
  12483.891  0.943421      0.943421      0.941963      0.941963     
  12487.049  0.943323      0.943323      0.941540      0.941540     
  12490.136  0.943152      0.943152      0.941128      0.941128     
  12493.303  0.942749      0.942749      0.940706      0.940706     
  12496.514  0.942231      0.942231      0.940279      0.940279     
  12499.795  0.941723      0.941723      0.939843      0.939843     
  12502.894  0.941320      0.941320      0.939433      0.939433     
  12505.989  0.940696      0.940696      0.939023      0.939023     
  12509.141  0.939978      0.939978      0.938608      0.938608     
  12512.354  0.939125      0.939125      0.938185      0.938185     
  12515.606  0.938631      0.938631      0.937758      0.937758     
  12518.719  0.937958      0.937958      0.937350      0.937350     
  12521.815  0.937115      0.937115      0.936945      0.936945     
  12525.022  0.936290      0.936290      0.936527      0.936527     
  12528.217  0.935582      0.935582      0.936111      0.936111     
  12531.396  0.935080      0.935080      0.935698      0.935698     
  12534.502  0.934528      0.934528      0.935295      0.935295     
  12537.607  0.933598      0.933598      0.934893      0.934893     
  12540.717  0.933107      0.933107      0.934491      0.934491     
  12543.910  0.932558      0.932558      0.934080      0.934080     
  12547.118  0.932029      0.932029      0.933667      0.933667     
  12550.244  0.931391      0.931391      0.933266      0.933266     
  12553.390  0.930837      0.930837      0.932863      0.932863     
  12556.703  0.930545      0.930545      0.932440      0.932440     
  12559.827  0.930233      0.930233      0.932042      0.932042     
  12562.950  0.929795      0.929795      0.931644      0.931644     
  12566.105  0.929655      0.929655      0.931243      0.931243     
  12569.376  0.929330      0.929330      0.930829      0.930829     
  12572.622  0.929321      0.929321      0.930418      0.930418     
  12575.824  0.929347      0.929347      0.930014      0.930014     
  12578.996  0.929088      0.929088      0.929614      0.929614     
  12582.195  0.929098      0.929098      0.929212      0.929212     
  12585.453  0.929228      0.929228      0.928804      0.928804     
  12588.648  0.929235      0.929235      0.928404      0.928404     
  12591.776  0.928931      0.928931      0.928013      0.928013     
  12595.006  0.928646      0.928646      0.927610      0.927610     
  12598.188  0.928649      0.928649      0.927214      0.927214     
  12601.392  0.928520      0.928520      0.926817      0.926817     
  12604.567  0.928250      0.928250      0.926423      0.926423     
  12607.750  0.927651      0.927651      0.926029      0.926029     
  12611.097  0.927151      0.927151      0.925616      0.925616     
  12614.448  0.926891      0.926891      0.925204      0.925204     
  12617.694  0.926375      0.926375      0.924805      0.924805     
  12620.892  0.925425      0.925425      0.924412      0.924412     
  12624.138  0.924828      0.924828      0.924015      0.924015     
  12627.416  0.924295      0.924295      0.923615      0.923615     
  12630.651  0.923880      0.923880      0.923220      0.923220     
  12633.865  0.923006      0.923006      0.922829      0.922829     
  12637.217  0.922592      0.922592      0.922422      0.922422     
  12640.578  0.921968      0.921968      0.922015      0.922015     
  12643.785  0.921575      0.921575      0.921627      0.921627     
  12646.983  0.921005      0.921005      0.921241      0.921241     
  12650.250  0.920320      0.920320      0.920848      0.920848     
  12653.628  0.919871      0.919871      0.920442      0.920442     
  12656.926  0.919727      0.919727      0.920046      0.920046     
  12660.171  0.919107      0.919107      0.919658      0.919658     
  12663.409  0.918497      0.918497      0.919271      0.919271     
  12666.680  0.918031      0.918031      0.918881      0.918881     
  12670.004  0.917728      0.917728      0.918486      0.918486     
  12673.293  0.917391      0.917391      0.918095      0.918095     
  12676.447  0.916795      0.916795      0.917722      0.917722     
  12679.799  0.916359      0.916359      0.917325      0.917325     
  12683.192  0.916132      0.916132      0.916925      0.916925     
  12686.516  0.915807      0.915807      0.916533      0.916533     
  12689.638  0.915485      0.915485      0.916166      0.916166     
  12692.936  0.914943      0.914943      0.915779      0.915779     
  12696.215  0.914871      0.914871      0.915395      0.915395     
  12699.447  0.914685      0.914685      0.915018      0.915018     
  12702.760  0.914340      0.914340      0.914631      0.914631     
  12705.982  0.913993      0.913993      0.914256      0.914256     
  12709.328  0.913759      0.913759      0.913868      0.913868     
  12712.623  0.913720      0.913720      0.913486      0.913486     
  12715.926  0.913454      0.913454      0.913104      0.913104     
  12719.174  0.912972      0.912972      0.912729      0.912729     
  12722.420  0.912681      0.912681      0.912354      0.912354     
  12725.781  0.912512      0.912512      0.911968      0.911968     
  12729.124  0.912511      0.912511      0.911584      0.911584     
  12732.312  0.911870      0.911870      0.911219      0.911219     
  12735.727  0.911602      0.911602      0.910828      0.910828     
  12738.978  0.911246      0.911246      0.910457      0.910457     
  12742.288  0.911101      0.911101      0.910080      0.910080     
  12745.519  0.910684      0.910684      0.909713      0.909713     
  12748.824  0.910044      0.910044      0.909338      0.909338     
  12752.237  0.909520      0.909520      0.908952      0.908952     
  12755.592  0.909362      0.909362      0.908573      0.908573     
  12758.896  0.908891      0.908891      0.908200      0.908200     
  12762.073  0.908031      0.908031      0.907843      0.907843     
  12765.444  0.907758      0.907758      0.907464      0.907464     
  12768.785  0.907362      0.907362      0.907090      0.907090     
  12772.113  0.906948      0.906948      0.906717      0.906717     
  12775.369  0.906274      0.906274      0.906354      0.906354     
  12778.674  0.905720      0.905720      0.905985      0.905985     
  12781.970  0.905193      0.905193      0.905619      0.905619     
  12785.311  0.904969      0.904969      0.905247      0.905247     
  12788.570  0.904594      0.904594      0.904886      0.904886     
  12791.887  0.903782      0.903782      0.904519      0.904519     
  12795.215  0.903388      0.903388      0.904152      0.904152     
  12798.571  0.903184      0.903184      0.903782      0.903782     
  12801.880  0.902804      0.902804      0.903418      0.903418     
  12805.086  0.902292      0.902292      0.903066      0.903066     
  12808.434  0.901930      0.901930      0.902699      0.902699     
  12811.885  0.901744      0.901744      0.902321      0.902321     
  12815.331  0.901408      0.901408      0.901945      0.901945     
  12818.555  0.901011      0.901011      0.901594      0.901594     
  12821.866  0.900580      0.900580      0.901234      0.901234     
  12825.245  0.900277      0.900277      0.900867      0.900867     
  12828.657  0.900195      0.900195      0.900497      0.900497     
  12831.935  0.899822      0.899822      0.900143      0.900143     
  12835.212  0.899374      0.899374      0.899790      0.899790     
  12838.671  0.899083      0.899083      0.899418      0.899418     
  12842.025  0.899002      0.899002      0.899058      0.899058     
  12845.351  0.898913      0.898913      0.898701      0.898701     
  12848.566  0.898356      0.898356      0.898358      0.898358     
  12851.909  0.898031      0.898031      0.898001      0.898001     
  12855.333  0.897913      0.897913      0.897637      0.897637     
  12858.759  0.897738      0.897738      0.897273      0.897273     
  12861.965  0.897230      0.897230      0.896933      0.896933     
  12865.248  0.896988      0.896988      0.896586      0.896586     
  12868.722  0.896503      0.896503      0.896220      0.896220     
  12872.094  0.896431      0.896431      0.895865      0.895865     
  12875.368  0.895950      0.895950      0.895522      0.895522     
  12878.684  0.895543      0.895543      0.895174      0.895174     
  12882.094  0.895172      0.895172      0.894818      0.894818     
  12885.476  0.895018      0.895018      0.894466      0.894466     
  12888.794  0.894617      0.894617      0.894121      0.894121     
  12892.135  0.894089      0.894089      0.893774      0.893774     
  12895.508  0.893627      0.893627      0.893425      0.893425     
  12898.892  0.893358      0.893358      0.893076      0.893076     
  12902.269  0.893258      0.893258      0.892729      0.892729     
  12905.628  0.892704      0.892704      0.892384      0.892384     
  12908.929  0.892110      0.892110      0.892046      0.892046     
  12912.316  0.891820      0.891820      0.891700      0.891700     
  12915.753  0.891570      0.891570      0.891350      0.891350     
  12919.074  0.891208      0.891208      0.891012      0.891012     
  12922.409  0.890586      0.890586      0.890674      0.890674     
  12925.827  0.890143      0.890143      0.890329      0.890329     
  12929.271  0.890061      0.890061      0.889982      0.889982     
  12932.652  0.889606      0.889606      0.889642      0.889642     
  12935.991  0.889084      0.889084      0.889307      0.889307     
  12939.476  0.888767      0.888767      0.888959      0.888959     
  12943.007  0.888531      0.888531      0.888607      0.888607     
  12946.356  0.888289      0.888289      0.888274      0.888274     
  12949.678  0.887725      0.887725      0.887944      0.887944     
  12953.079  0.887328      0.887328      0.887608      0.887608     
  12956.447  0.887006      0.887006      0.887276      0.887276     
  12959.948  0.886897      0.886897      0.886932      0.886932     
  12963.300  0.886555      0.886555      0.886603      0.886603     
  12966.633  0.886033      0.886033      0.886278      0.886278     
  12970.018  0.885813      0.885813      0.885948      0.885948     
  12973.492  0.885543      0.885543      0.885610      0.885610     
  12976.911  0.885215      0.885215      0.885279      0.885279     
  12980.238  0.884847      0.884847      0.884958      0.884958     
  12983.648  0.884516      0.884516      0.884630      0.884630     
  12987.131  0.884112      0.884112      0.884295      0.884295     
  12990.519  0.884103      0.884103      0.883971      0.883971     
  12993.884  0.883641      0.883641      0.883650      0.883650     
  12997.264  0.883104      0.883104      0.883329      0.883329     
  13004.186  0.882870      0.882870      0.882673      0.882673     
  13008.245  0.882498      0.882498      0.882291      0.882291     
  13012.324  0.881866      0.881866      0.881908      0.881908     
  13016.361  0.881412      0.881412      0.881531      0.881531     
  13020.461  0.881356      0.881356      0.881149      0.881149     
  13024.441  0.880869      0.880869      0.880780      0.880780     
  13028.547  0.880431      0.880431      0.880401      0.880401     
  13032.651  0.880188      0.880188      0.880023      0.880023     
  13036.690  0.879885      0.879885      0.879653      0.879653     
  13040.740  0.879375      0.879375      0.879283      0.879283     
  13044.795  0.879018      0.879018      0.878914      0.878914     
  13048.986  0.878770      0.878770      0.878535      0.878535     
  13053.022  0.878419      0.878419      0.878171      0.878171     
  13057.112  0.877694      0.877694      0.877803      0.877803     
  13061.227  0.877403      0.877403      0.877435      0.877435     
  13065.348  0.877198      0.877198      0.877068      0.877068     
  13069.439  0.876708      0.876708      0.876705      0.876705     
  13073.563  0.876179      0.876179      0.876341      0.876341     
  13077.725  0.875967      0.875967      0.875975      0.875975     
  13081.830  0.875751      0.875751      0.875616      0.875616     
  13085.861  0.875086      0.875086      0.875264      0.875264     
  13090.030  0.874629      0.874629      0.874903      0.874903     
  13094.277  0.874569      0.874569      0.874536      0.874536     
  13098.374  0.874071      0.874071      0.874183      0.874183     
  13102.548  0.873543      0.873543      0.873826      0.873826     
  13106.608  0.873196      0.873196      0.873480      0.873480     
  13110.721  0.873046      0.873046      0.873131      0.873131     
  13114.859  0.872709      0.872709      0.872781      0.872781     
  13118.916  0.872118      0.872118      0.872440      0.872440     
  13123.145  0.871990      0.871990      0.872087      0.872087     
  13127.193  0.871742      0.871742      0.871749      0.871749     
  13131.293  0.871172      0.871172      0.871410      0.871410     
  13135.420  0.870752      0.870752      0.871069      0.871069     
  13139.634  0.870719      0.870719      0.870723      0.870723     
  13143.689  0.870510      0.870510      0.870392      0.870392     
  13147.776  0.869810      0.869810      0.870060      0.870060     
  13151.955  0.869662      0.869662      0.869721      0.869721     
  13156.232  0.869569      0.869569      0.869377      0.869377     
  13160.362  0.869251      0.869251      0.869047      0.869047     
  13164.579  0.868722      0.868722      0.868712      0.868712     
  13168.757  0.868348      0.868348      0.868382      0.868382     
  13172.906  0.868197      0.868197      0.868056      0.868056     
  13177.046  0.867690      0.867690      0.867733      0.867733     
  13181.149  0.867252      0.867252      0.867415      0.867415     
  13185.392  0.867260      0.867260      0.867088      0.867088     
  13189.515  0.866928      0.866928      0.866772      0.866772     
  13193.709  0.866401      0.866401      0.866453      0.866453     
  13197.934  0.866183      0.866183      0.866133      0.866133     
  13202.175  0.866110      0.866110      0.865815      0.865815     
  13206.407  0.865718      0.865718      0.865499      0.865499     
  13210.661  0.865105      0.865105      0.865183      0.865183     
  13214.907  0.865008      0.865008      0.864869      0.864869     
  13219.155  0.864653      0.864653      0.864558      0.864558     
  13223.300  0.864324      0.864324      0.864256      0.864256     
  13227.574  0.863906      0.863906      0.863946      0.863946     
  13231.882  0.863675      0.863675      0.863636      0.863636     
  13236.054  0.863437      0.863437      0.863337      0.863337     
  13240.274  0.862886      0.862886      0.863037      0.863037     
  13244.586  0.862770      0.862770      0.862732      0.862732     
  13248.915  0.862447      0.862447      0.862428      0.862428     
  13253.188  0.861998      0.861998      0.862129      0.862129     
  13257.491  0.861598      0.861598      0.861830      0.861830     
  13261.708  0.861616      0.861616      0.861539      0.861539     
  13265.900  0.861234      0.861234      0.861251      0.861251     
  13270.114  0.860799      0.860799      0.860963      0.860963     
  13274.275  0.860520      0.860520      0.860681      0.860681     
  13278.650  0.860499      0.860499      0.860386      0.860386     
  13282.874  0.860194      0.860194      0.860102      0.860102     
  13287.112  0.859687      0.859687      0.859820      0.859820     
  13291.364  0.859454      0.859454      0.859538      0.859538     
  13295.602  0.859459      0.859459      0.859258      0.859258     
  13299.766  0.858975      0.858975      0.858985      0.858985     
  13304.059  0.858587      0.858587      0.858705      0.858705     
  13308.346  0.858442      0.858442      0.858427      0.858427     
  13312.554  0.858248      0.858248      0.858156      0.858156     
  13316.822  0.857811      0.857811      0.857882      0.857882     
  13321.134  0.857503      0.857503      0.857607      0.857607     
  13325.522  0.857558      0.857558      0.857329      0.857329     
  13329.749  0.857328      0.857328      0.857062      0.857062     
  13333.929  0.856740      0.856740      0.856800      0.856800     
  13338.258  0.856542      0.856542      0.856530      0.856530     
  13342.590  0.856466      0.856466      0.856261      0.856261     
  13346.837  0.856138      0.856138      0.855999      0.855999     
  13351.119  0.855580      0.855580      0.855736      0.855736     
  13355.444  0.855646      0.855646      0.855472      0.855472     
  13359.682  0.855384      0.855384      0.855214      0.855214     
  13364.026  0.854919      0.854919      0.854952      0.854952     
  13368.353  0.854718      0.854718      0.854692      0.854692     
  13372.692  0.854635      0.854635      0.854432      0.854432     
  13376.980  0.854335      0.854335      0.854177      0.854177     
  13381.256  0.853803      0.853803      0.853924      0.853924     
  13385.617  0.853699      0.853699      0.853667      0.853667     
  13390.073  0.853468      0.853468      0.853407      0.853407     
  13394.416  0.853076      0.853076      0.853154      0.853154     
  13398.763  0.852757      0.852757      0.852902      0.852902     
  13403.029  0.852650      0.852650      0.852656      0.852656     
  13407.352  0.852480      0.852480      0.852408      0.852408     
  13411.644  0.851966      0.851966      0.852163      0.852163     
  13415.893  0.851790      0.851790      0.851921      0.851921     
  13420.359  0.851958      0.851958      0.851669      0.851669     
  13424.684  0.851613      0.851613      0.851425      0.851425     
  13429.058  0.850698      0.850698      0.851180      0.851180     
  13433.354  0.850003      0.850003      0.850941      0.850941     
  13437.793  0.850655      0.850655      0.850695      0.850695     
  13442.035  0.850258      0.850258      0.850461      0.850461     
  13446.433  0.850115      0.850115      0.850219      0.850219     
  13450.822  0.850026      0.850026      0.849979      0.849979     
  13455.124  0.849908      0.849908      0.849745      0.849745     
  13459.453  0.849495      0.849495      0.849511      0.849511     
  13463.804  0.849313      0.849313      0.849276      0.849276     
  13468.208  0.849275      0.849275      0.849040      0.849040     
  13472.455  0.848883      0.848883      0.848813      0.848813     
  13476.756  0.848497      0.848497      0.848585      0.848585     
  13481.077  0.848361      0.848361      0.848356      0.848356     
  13485.541  0.848351      0.848351      0.848121      0.848121     
  13489.946  0.848003      0.848003      0.847890      0.847890     
  13494.363  0.847599      0.847599      0.847659      0.847659     
  13498.760  0.847492      0.847492      0.847430      0.847430     
  13503.094  0.847419      0.847419      0.847206      0.847206     
  13507.437  0.846794      0.846794      0.846982      0.846982     
  13511.887  0.846677      0.846677      0.846754      0.846754     
  13516.430  0.846544      0.846544      0.846521      0.846521     
  13520.772  0.846599      0.846599      0.846300      0.846300     
  13525.165  0.845866      0.845866      0.846078      0.846078     
  13529.519  0.845711      0.845711      0.845858      0.845858     
  13534.068  0.845757      0.845757      0.845629      0.845629     
  13538.460  0.845439      0.845439      0.845409      0.845409     
  13542.890  0.845185      0.845185      0.845189      0.845189     
  13547.373  0.845021      0.845021      0.844966      0.844966     
  13551.788  0.844844      0.844844      0.844748      0.844748     
  13556.111  0.844480      0.844480      0.844535      0.844535     
  13560.511  0.844238      0.844238      0.844319      0.844319     
  13565.033  0.844237      0.844237      0.844098      0.844098     
  13569.450  0.844082      0.844082      0.843883      0.843883     
  13573.840  0.843607      0.843607      0.843670      0.843670     
  13578.290  0.843421      0.843421      0.843455      0.843455     
  13582.822  0.843311      0.843311      0.843237      0.843237     
  13587.275  0.842944      0.842944      0.843023      0.843023     
  13591.662  0.842534      0.842534      0.842814      0.842814     
  13596.142  0.842680      0.842680      0.842600      0.842600     
  13600.585  0.842535      0.842535     
  13605.017  0.842078      0.842078     
  13609.404  0.841776      0.841776     
  13613.929  0.841707      0.841707     
  13618.415  0.841648      0.841648     
  13622.930  0.841103      0.841103     
  13627.433  0.840941      0.840941     
  13632.019  0.840929      0.840929     
  13636.508  0.840505      0.840505     
  13640.989  0.840186      0.840186     
  13645.444  0.840050      0.840050     
  13649.989  0.840153      0.840153     
  13654.463  0.839682      0.839682     
  13658.922  0.839509      0.839509     
  13663.479  0.839623      0.839623     
  13667.925  0.839603      0.839603     
  13672.343  0.839235      0.839235     
  13676.915  0.839123      0.839123     
  13681.523  0.839361      0.839361     
  13685.930  0.839553      0.839553     
  13690.415  0.839685      0.839685     
  13694.876  0.840270      0.840270     
  13699.443  0.841257      0.841257     
