# Normalized Absorption: Au300K                                  
#  
# No. of glitches: --- to be done ---
#  
# No. of sec.edges:    0
#   A_nor = (abs - pre_edge - multiple_edges)/jump:#        Normalized absorption used for EXAFS estraction
#   A_0   = (abs - pre_edge)/jump#        Absorption - PreEdge only
#   SPL_nor = (SPL )/jump#        splines used to fit A_nor
#   SPL_ME_nor = (SPL + multiple_edges)/jump#        splines fitting A_0
#  1_E   2_A_nor   3_A_0   4_SPL_nor   5_SPL_ME_nor
  11699.999  0.310710E-02  0.310710E-02   0.00000       0.00000     
  11709.980  0.235104E-02  0.235104E-02   0.00000       0.00000     
  11720.010  0.151582E-02  0.151582E-02   0.00000       0.00000     
  11730.035  0.514493E-03  0.514493E-03   0.00000       0.00000     
  11740.091  0.827265E-04  0.827265E-04   0.00000       0.00000     
  11750.105 -0.904619E-03 -0.904619E-03   0.00000       0.00000     
  11760.208 -0.143416E-02 -0.143416E-02   0.00000       0.00000     
  11770.339 -0.143865E-02 -0.143865E-02   0.00000       0.00000     
  11780.483 -0.163231E-02 -0.163231E-02   0.00000       0.00000     
  11790.656 -0.179215E-02 -0.179215E-02   0.00000       0.00000     
  11800.819 -0.177479E-02 -0.177479E-02   0.00000       0.00000     
  11811.049 -0.222953E-02 -0.222953E-02   0.00000       0.00000     
  11821.325 -0.174711E-02 -0.174711E-02   0.00000       0.00000     
  11831.531 -0.159785E-02 -0.159785E-02   0.00000       0.00000     
  11841.933 -0.122933E-02 -0.122933E-02   0.00000       0.00000     
  11852.198 -0.196966E-03 -0.196966E-03   0.00000       0.00000     
  11862.533  0.589403E-03  0.589403E-03   0.00000       0.00000     
  11872.857  0.196447E-02  0.196447E-02   0.00000       0.00000     
  11883.154  0.585242E-02  0.585242E-02   0.00000       0.00000     
  11893.498  0.130577E-01  0.130577E-01   0.00000       0.00000     
  11901.195  0.240219E-01  0.240219E-01   0.00000       0.00000     
  11902.168  0.264905E-01  0.264905E-01   0.00000       0.00000     
  11903.153  0.288304E-01  0.288304E-01   0.00000       0.00000     
  11904.166  0.320552E-01  0.320552E-01   0.00000       0.00000     
  11905.135  0.361011E-01  0.361011E-01   0.00000       0.00000     
  11906.129  0.403473E-01  0.403473E-01   0.00000       0.00000     
  11907.075  0.445547E-01  0.445547E-01   0.00000       0.00000     
  11908.078  0.500463E-01  0.500463E-01   0.00000       0.00000     
  11909.118  0.567690E-01  0.567690E-01   0.00000       0.00000     
  11910.094  0.641467E-01  0.641467E-01   0.00000       0.00000     
  11911.070  0.730515E-01  0.730515E-01   0.00000       0.00000     
  11912.078  0.837354E-01  0.837354E-01   0.00000       0.00000     
  11913.095  0.978274E-01  0.978274E-01   0.00000       0.00000     
  11914.055  0.116718      0.116718       0.00000       0.00000     
  11915.051  0.141648      0.141648      0.151394      0.151394     
  11916.049  0.180236      0.180236      0.363221      0.363221     
  11917.048  0.242609      0.242609      0.456642      0.456642     
  11918.047  0.332173      0.332173      0.522516      0.522516     
  11919.092  0.439335      0.439335      0.576207      0.576207     
  11920.084  0.557031      0.557031      0.618054      0.618054     
  11921.077  0.653930      0.653930      0.653688      0.653688     
  11922.072  0.716790      0.716790      0.684666      0.684666     
  11923.048  0.756183      0.756183      0.711434      0.711434     
  11924.061  0.777174      0.777174      0.736150      0.736150     
  11925.027  0.783693      0.783693      0.757303      0.757303     
  11926.043  0.784550      0.784550      0.777404      0.777404     
  11927.021  0.785402      0.785402      0.794970      0.794970     
  11928.037  0.793779      0.793779      0.811614      0.811614     
  11929.035  0.809058      0.809058      0.826569      0.826569     
  11930.040  0.831225      0.831225      0.840398      0.840398     
  11931.029  0.852044      0.852044      0.852932      0.852932     
  11931.998  0.867468      0.867468      0.864287      0.864287     
  11933.017  0.878820      0.878820      0.875335      0.875335     
  11934.014  0.884628      0.884628      0.885343      0.885343     
  11935.011  0.885630      0.885630      0.894631      0.894631     
  11936.024  0.885516      0.885516      0.903394      0.903394     
  11937.003  0.886970      0.886970      0.911272      0.911272     
  11938.001  0.892535      0.892535      0.918754      0.918754     
  11938.983  0.901389      0.901389      0.925616      0.925616     
  11939.995  0.909900      0.909900      0.932208      0.932208     
  11940.987  0.920024      0.920024      0.938232      0.938232     
  11941.977  0.939186      0.939186      0.943843      0.943843     
  11943.022  0.973015      0.973015      0.949362      0.949362     
  11944.047   1.01154       1.01154      0.954401      0.954401     
  11945.046   1.04837       1.04837      0.958978      0.958978     
  11946.044   1.07121       1.07121      0.963244      0.963244     
  11947.036   1.07458       1.07458      0.967200      0.967200     
  11948.098   1.06174       1.06174      0.971141      0.971141     
  11949.099   1.04066       1.04066      0.974595      0.974595     
  11950.102   1.01913       1.01913      0.977817      0.977817     
  11951.083  0.998002      0.998002      0.980751      0.980751     
  11952.085  0.984283      0.984283      0.983539      0.983539     
  11953.069  0.978192      0.978192      0.986084      0.986084     
  11954.099  0.977084      0.977084      0.988554      0.988554     
  11955.113  0.973964      0.973964      0.990804      0.990804     
  11956.106  0.968366      0.968366      0.992841      0.992841     
  11957.096  0.960957      0.960957      0.994719      0.994719     
  11958.078  0.955318      0.955318      0.996438      0.996438     
  11959.093  0.953799      0.953799      0.998073      0.998073     
  11960.093  0.956956      0.956956      0.999550      0.999550     
  11961.108  0.964955      0.964955       1.00092       1.00092     
  11962.102  0.974905      0.974905       1.00215       1.00215     
  11963.105  0.988959      0.988959       1.00327       1.00327     
  11964.126   1.00460       1.00460       1.00431       1.00431     
  11965.114   1.02112       1.02112       1.00521       1.00521     
  11966.106   1.03755       1.03755       1.00602       1.00602     
  11967.111   1.05383       1.05383       1.00675       1.00675     
  11968.151   1.06637       1.06637       1.00742       1.00742     
  11969.176   1.07232       1.07232       1.00799       1.00799     
  11970.244   1.07169       1.07169       1.00851       1.00851     
  11971.220   1.06698       1.06698       1.00891       1.00891     
  11972.233   1.05831       1.05831       1.00925       1.00925     
  11973.244   1.04914       1.04914       1.00953       1.00953     
  11974.229   1.04130       1.04130       1.00974       1.00974     
  11975.259   1.03442       1.03442       1.00991       1.00991     
  11976.243   1.02821       1.02821       1.01001       1.01001     
  11977.258   1.02268       1.02268       1.01006       1.01006     
  11978.298   1.01823       1.01823       1.01007       1.01007     
  11979.321   1.01314       1.01314       1.01003       1.01003     
  11980.342   1.00943       1.00943       1.00994       1.00994     
  11981.401   1.00751       1.00751       1.00981       1.00981     
  11982.426   1.00570       1.00570       1.00965       1.00965     
  11983.454   1.00300       1.00300       1.00944       1.00944     
  11984.479   1.00003       1.00003       1.00921       1.00921     
  11985.530  0.995686      0.995686       1.00894       1.00894     
  11986.556  0.989330      0.989330       1.00864       1.00864     
  11987.550  0.983004      0.983004       1.00833       1.00833     
  11988.587  0.975229      0.975229       1.00797       1.00797     
  11989.575  0.968464      0.968464       1.00762       1.00762     
  11990.595  0.963321      0.963321       1.00723       1.00723     
  11991.589  0.959428      0.959428       1.00683       1.00683     
  11992.596  0.958012      0.958012       1.00641       1.00641     
  11993.599  0.958730      0.958730       1.00598       1.00598     
  11994.608  0.960044      0.960044       1.00553       1.00553     
  11995.626  0.961834      0.961834       1.00507       1.00507     
  11996.624  0.964388      0.964388       1.00460       1.00460     
  11997.623  0.967148      0.967148       1.00412       1.00412     
  11998.641  0.970710      0.970710       1.00363       1.00363     
  11999.649  0.975601      0.975601       1.00313       1.00313     
  12000.655  0.981574      0.981574       1.00263       1.00263     
  12001.663  0.988676      0.988676       1.00212       1.00212     
  12002.676  0.996948      0.996948       1.00161       1.00161     
  12003.687   1.00581       1.00581       1.00110       1.00110     
  12004.695   1.01381       1.01381       1.00059       1.00059     
  12005.736   1.02067       1.02067       1.00006       1.00006     
  12006.769   1.02486       1.02486      0.999532      0.999532     
  12007.778   1.02720       1.02720      0.999022      0.999022     
  12008.783   1.02859       1.02859      0.998517      0.998517     
  12009.797   1.02862       1.02862      0.998010      0.998010     
  12010.892   1.02712       1.02712      0.997469      0.997469     
  12011.880   1.02520       1.02520      0.996987      0.996987     
  12012.863   1.02272       1.02272      0.996513      0.996513     
  12013.900   1.01944       1.01944      0.996021      0.996021     
  12014.911   1.01572       1.01572      0.995549      0.995549     
  12015.922   1.01280       1.01280      0.995086      0.995086     
  12016.932   1.00912       1.00912      0.994633      0.994633     
  12017.929   1.00552       1.00552      0.994195      0.994195     
  12018.949   1.00367       1.00367      0.993759      0.993759     
  12019.956   1.00121       1.00121      0.993340      0.993340     
  12021.973  0.998494      0.998494      0.992538      0.992538     
  12023.950  0.998235      0.998235      0.991804      0.991804     
  12026.008  0.999997      0.999997      0.991100      0.991100     
  12027.965   1.00172       1.00172      0.990490      0.990490     
  12029.963   1.00316       1.00316      0.989933      0.989933     
  12031.956   1.00364       1.00364      0.989446      0.989446     
  12033.953   1.00102       1.00102      0.989031      0.989031     
  12035.975  0.997377      0.997377      0.988688      0.988688     
  12038.001  0.992199      0.992199      0.988427      0.988427     
  12039.985  0.984557      0.984557      0.988253      0.988253     
  12041.978  0.977649      0.977649      0.988163      0.988163     
  12043.990  0.970643      0.970643      0.988162      0.988162     
  12046.004  0.965466      0.965466      0.988252      0.988252     
  12047.998  0.962857      0.962857      0.988435      0.988435     
  12049.997  0.962586      0.962586      0.988714      0.988714     
  12051.974  0.964684      0.964684      0.989087      0.989087     
  12053.970  0.968530      0.968530      0.989506      0.989506     
  12056.020  0.975148      0.975148      0.989902      0.989902     
  12057.997  0.980568      0.980568      0.990251      0.990251     
  12060.057  0.986156      0.986156      0.990582      0.990582     
  12062.117  0.991012      0.991012      0.990881      0.990881     
  12064.134  0.994533      0.994533      0.991143      0.991143     
  12066.154  0.997668      0.997668      0.991378      0.991378     
  12068.149   1.00027       1.00027      0.991583      0.991583     
  12070.185   1.00188       1.00188      0.991766      0.991766     
  12072.231   1.00314       1.00314      0.991924      0.991924     
  12074.305   1.00391       1.00391      0.992059      0.992059     
  12076.326   1.00411       1.00411      0.992168      0.992168     
  12078.358   1.00310       1.00310      0.992255      0.992255     
  12080.403   1.00120       1.00120      0.992321      0.992321     
  12082.447  0.999301      0.999301      0.992366      0.992366     
  12084.494  0.998516      0.998516      0.992392      0.992392     
  12086.528  0.999222      0.999222      0.992400      0.992400     
  12088.533   1.00183       1.00183      0.992390      0.992390     
  12090.540   1.00485       1.00485      0.992363      0.992363     
  12092.572   1.00798       1.00798      0.992320      0.992320     
  12094.616   1.01076       1.01076      0.992261      0.992261     
  12096.654   1.01048       1.01048      0.992188      0.992188     
  12098.703   1.00721       1.00721      0.992101      0.992101     
  12100.776   1.00175       1.00175      0.991998      0.991998     
  12102.844  0.993702      0.993702      0.991884      0.991884     
  12104.860  0.984876      0.984876      0.991760      0.991760     
  12106.906  0.976208      0.976208      0.991623      0.991623     
  12108.913  0.971271      0.971271      0.991478      0.991478     
  12110.958  0.968370      0.968370      0.991321      0.991321     
  12113.014  0.967748      0.967748      0.991153      0.991153     
  12115.070  0.967417      0.967417      0.990976      0.990976     
  12117.192  0.966900      0.966900      0.990784      0.990784     
  12119.275  0.966897      0.966897      0.990588      0.990588     
  12121.373  0.967038      0.967038      0.990383      0.990383     
  12123.454  0.967620      0.967620      0.990172      0.990172     
  12125.482  0.968913      0.968913      0.989960      0.989960     
  12127.489  0.970111      0.970111      0.989745      0.989745     
  12129.552  0.971640      0.971640      0.989519      0.989519     
  12131.595  0.974428      0.974428      0.989289      0.989289     
  12133.624  0.978063      0.978063      0.989057      0.989057     
  12135.666  0.982704      0.982704      0.988819      0.988819     
  12137.643  0.987981      0.987981      0.988586      0.988586     
  12139.725  0.993525      0.993525      0.988337      0.988337     
  12141.741  0.999497      0.999497      0.988092      0.988092     
  12143.785   1.00670       1.00670      0.987842      0.987842     
  12145.792   1.01469       1.01469      0.987595      0.987595     
  12147.823   1.01990       1.01990      0.987343      0.987343     
  12149.875   1.02441       1.02441      0.987086      0.987086     
  12151.889   1.02626       1.02626      0.986834      0.986834     
  12153.962   1.02515       1.02515      0.986573      0.986573     
  12156.030   1.02162       1.02162      0.986313      0.986313     
  12158.132   1.01688       1.01688      0.986048      0.986048     
  12160.182   1.01084       1.01084      0.985790      0.985790     
  12162.237   1.00419       1.00419      0.985532      0.985532     
  12164.257  0.997044      0.997044      0.985279      0.985279     
  12166.396  0.989210      0.989210      0.985013      0.985013     
  12168.472  0.979955      0.979955      0.984756      0.984756     
  12170.549  0.969935      0.969935      0.984500      0.984500     
  12172.630  0.961083      0.961083      0.984246      0.984246     
  12174.704  0.955623      0.955623      0.983995      0.983995     
  12176.781  0.953633      0.953633      0.983747      0.983747     
  12178.878  0.954482      0.954482      0.983499      0.983499     
  12180.935  0.956666      0.956666      0.983258      0.983258     
  12183.008  0.960826      0.960826      0.983019      0.983019     
  12185.104  0.966992      0.966992      0.982782      0.982782     
  12187.187  0.972585      0.972585      0.982549      0.982549     
  12189.278  0.977107      0.977107      0.982320      0.982320     
  12191.395  0.979691      0.979691      0.982092      0.982092     
  12193.476  0.979164      0.979164      0.981873      0.981873     
  12195.523  0.975639      0.975639      0.981661      0.981661     
  12197.601  0.970235      0.970235      0.981452      0.981452     
  12199.633  0.965713      0.965713      0.981252      0.981252     
  12201.717  0.963874      0.963874      0.981052      0.981052     
  12203.805  0.964436      0.964436      0.980858      0.980858     
  12205.896  0.966854      0.966854      0.980669      0.980669     
  12207.985  0.971392      0.971392      0.980486      0.980486     
  12210.076  0.977296      0.977296      0.980309      0.980309     
  12212.167  0.983079      0.983079      0.980139      0.980139     
  12214.259  0.988143      0.988143      0.979975      0.979975     
  12216.345  0.993373      0.993373      0.979818      0.979818     
  12218.385  0.997687      0.997687      0.979671      0.979671     
  12220.454   1.00223       1.00223      0.979529      0.979529     
  12222.528   1.00703       1.00703      0.979394      0.979394     
  12224.579   1.01052       1.01052      0.979265      0.979265     
  12226.631   1.01176       1.01176      0.979132      0.979132     
  12228.723   1.01145       1.01145      0.978988      0.978988     
  12230.776   1.00903       1.00903      0.978840      0.978840     
  12232.859   1.00469       1.00469      0.978683      0.978683     
  12234.958  0.998799      0.998799      0.978518      0.978518     
  12237.065  0.989207      0.989207      0.978346      0.978346     
  12239.160  0.980748      0.980748      0.978167      0.978167     
  12242.973  0.965860      0.965860      0.977827      0.977827     
  12246.038  0.957365      0.957365      0.977539      0.977539     
  12249.030  0.952066      0.952066      0.977246      0.977246     
  12252.047  0.951997      0.951997      0.976940      0.976940     
  12255.074  0.954828      0.954828      0.976621      0.976621     
  12258.229  0.958863      0.958863      0.976277      0.976277     
  12261.263  0.964174      0.964174      0.975937      0.975937     
  12264.300  0.968844      0.968844      0.975586      0.975586     
  12267.335  0.971325      0.971325      0.975226      0.975226     
  12270.436  0.972836      0.972836      0.974850      0.974850     
  12273.474  0.973122      0.973122      0.974473      0.974473     
  12276.515  0.969184      0.969184      0.974087      0.974087     
  12279.551  0.963887      0.963887      0.973695      0.973695     
  12282.593  0.959436      0.959436      0.973295      0.973295     
  12285.656  0.957767      0.957767      0.972885      0.972885     
  12288.742  0.960078      0.960078      0.972465      0.972465     
  12291.795  0.967350      0.967350      0.972044      0.972044     
  12294.851  0.974456      0.974456      0.971617      0.971617     
  12298.018  0.979485      0.979485      0.971169      0.971169     
  12301.009  0.982292      0.982292      0.970741      0.970741     
  12304.008  0.983183      0.983183      0.970307      0.970307     
  12307.063  0.982694      0.982694      0.969861      0.969861     
  12310.203  0.984131      0.984131      0.969398      0.969398     
  12313.245  0.986664      0.986664      0.968947      0.968947     
  12316.310  0.989418      0.989418      0.968488      0.968488     
  12319.367  0.989023      0.989023      0.968028      0.968028     
  12322.430  0.986957      0.986957      0.967564      0.967564     
  12325.532  0.982023      0.982023      0.967091      0.967091     
  12328.562  0.973435      0.973435      0.966628      0.966628     
  12331.697  0.962437      0.962437      0.966146      0.966146     
  12334.770  0.951296      0.951296      0.965673      0.965673     
  12337.930  0.941720      0.941720      0.965184      0.965184     
  12340.978  0.934721      0.934721      0.964712      0.964712     
  12344.052  0.932662      0.932662      0.964235      0.964235     
  12347.163  0.934127      0.934127      0.963752      0.963752     
  12350.301  0.937757      0.937757      0.963264      0.963264     
  12353.393  0.943105      0.943105      0.962784      0.962784     
  12356.484  0.950069      0.950069      0.962304      0.962304     
  12359.518  0.955732      0.955732      0.961833      0.961833     
  12362.609  0.960440      0.960440      0.961354      0.961354     
  12365.734  0.963190      0.963190      0.960870      0.960870     
  12368.777  0.964616      0.964616      0.960401      0.960401     
  12371.866  0.966929      0.966929      0.959925      0.959925     
  12374.957  0.969234      0.969234      0.959451      0.959451     
  12378.066  0.971125      0.971125      0.958976      0.958976     
  12381.142  0.972067      0.972067      0.958508      0.958508     
  12384.241  0.971675      0.971675      0.958039      0.958039     
  12387.336  0.969528      0.969528      0.957572      0.957572     
  12390.512  0.968090      0.968090      0.957096      0.957096     
  12393.604  0.968258      0.968258      0.956636      0.956636     
  12396.694  0.969288      0.969288      0.956179      0.956179     
  12399.748  0.970613      0.970613      0.955730      0.955730     
  12402.850  0.970306      0.970306      0.955277      0.955277     
  12405.956  0.967908      0.967908      0.954828      0.954828     
  12409.082  0.963060      0.963060      0.954379      0.954379     
  12412.173  0.958496      0.958496      0.953939      0.953939     
  12415.289  0.954880      0.954880      0.953500      0.953500     
  12418.530  0.952166      0.952166      0.953047      0.953047     
  12421.675  0.949138      0.949138      0.952613      0.952613     
  12424.816  0.946328      0.946328      0.952183      0.952183     
  12427.889  0.944272      0.944272      0.951768      0.951768     
  12431.090  0.943101      0.943101      0.951340      0.951340     
  12434.223  0.942136      0.942136      0.950927      0.950927     
  12437.323  0.940236      0.940236      0.950523      0.950523     
  12440.449  0.938520      0.938520      0.950121      0.950121     
  12443.604  0.936580      0.936580      0.949721      0.949721     
  12446.750  0.934664      0.934664      0.949327      0.949327     
  12449.902  0.933758      0.933758      0.948939      0.948939     
  12453.007  0.935048      0.935048      0.948562      0.948562     
  12456.162  0.938521      0.938521      0.948186      0.948186     
  12459.411  0.941642      0.941642      0.947805      0.947805     
  12462.507  0.944056      0.944056      0.947448      0.947448     
  12465.662  0.945197      0.945197      0.947089      0.947089     
  12468.857  0.945467      0.945467      0.946726      0.946726     
  12472.069  0.947153      0.947153      0.946359      0.946359     
  12475.211  0.949563      0.949563      0.945999      0.945999     
  12478.357  0.952397      0.952397      0.945637      0.945637     
  12481.507  0.954821      0.954821      0.945275      0.945275     
  12484.656  0.956576      0.956576      0.944911      0.944911     
  12487.831  0.957997      0.957997      0.944544      0.944544     
  12490.956  0.959595      0.959595      0.944181      0.944181     
  12494.174  0.960770      0.960770      0.943807      0.943807     
  12497.332  0.961312      0.961312      0.943439      0.943439     
  12500.628  0.961182      0.961182      0.943055      0.943055     
  12503.776  0.959554      0.959554      0.942687      0.942687     
  12506.948  0.956055      0.956055      0.942315      0.942315     
  12510.145  0.952473      0.952473      0.941940      0.941940     
  12513.343  0.949927      0.949927      0.941564      0.941564     
  12516.509  0.945950      0.945950      0.941191      0.941191     
  12519.686  0.939593      0.939593      0.940817      0.940817     
  12522.829  0.934285      0.934285      0.940446      0.940446     
  12525.986  0.930421      0.930421      0.940072      0.940072     
  12529.138  0.927410      0.927410      0.939699      0.939699     
  12532.289  0.926378      0.926378      0.939326      0.939326     
  12535.465  0.927492      0.927492      0.938950      0.938950     
  12538.647  0.928608      0.928608      0.938572      0.938572     
  12541.963  0.930193      0.930193      0.938178      0.938178     
  12545.144  0.931429      0.931429      0.937800      0.937800     
  12548.322  0.931784      0.931784      0.937421      0.937421     
  12551.535  0.931548      0.931548      0.937039      0.937039     
  12554.761  0.930220      0.930220      0.936654      0.936654     
  12557.956  0.927565      0.927565      0.936274      0.936274     
  12561.146  0.922997      0.922997      0.935893      0.935893     
  12564.327  0.919105      0.919105      0.935514      0.935514     
  12567.599  0.915818      0.915818      0.935123      0.935123     
  12570.850  0.915049      0.915049      0.934735      0.934735     
  12573.989  0.916716      0.916716      0.934361      0.934361     
  12577.193  0.919669      0.919669      0.933978      0.933978     
  12580.389  0.923291      0.923291      0.933596      0.933596     
  12583.662  0.928062      0.928062      0.933206      0.933206     
  12586.862  0.934124      0.934124      0.932824      0.932824     
  12590.135  0.940130      0.940130      0.932433      0.932433     
  12593.330  0.945670      0.945670      0.932052      0.932052     
  12596.544  0.950182      0.950182      0.931668      0.931668     
  12599.761  0.953261      0.953261      0.931285      0.931285     
  12602.986  0.955732      0.955732      0.930900      0.930900     
  12606.187  0.956724      0.956724      0.930519      0.930519     
  12609.409  0.955868      0.955868      0.930135      0.930135     
  12612.684  0.954434      0.954434      0.929745      0.929745     
  12615.919  0.951499      0.951499      0.929361      0.929361     
  12619.127  0.947580      0.947580      0.928979      0.928979     
  12622.353  0.943532      0.943532      0.928596      0.928596     
  12625.645  0.938539      0.938539      0.928206      0.928206     
  12628.871  0.931444      0.931444      0.927823      0.927823     
  12632.098  0.923323      0.923323      0.927441      0.927441     
  12635.294  0.917200      0.917200      0.927062      0.927062     
  12638.558  0.912722      0.912722      0.926677      0.926677     
  12641.842  0.909652      0.909652      0.926289      0.926289     
  12645.080  0.908375      0.908375      0.925907      0.925907     
  12648.309  0.908416      0.908416      0.925526      0.925526     
  12651.559  0.909341      0.909341      0.925144      0.925144     
  12654.856  0.911499      0.911499      0.924756      0.924756     
  12658.048  0.913977      0.913977      0.924382      0.924382     
  12661.296  0.915993      0.915993      0.924001      0.924001     
  12664.549  0.917415      0.917415      0.923620      0.923620     
  12667.856  0.917875      0.917875      0.923234      0.923234     
  12671.113  0.916487      0.916487      0.922853      0.922853     
  12674.403  0.915649      0.915649      0.922470      0.922470     
  12677.677  0.915366      0.915366      0.922089      0.922089     
  12681.031  0.915619      0.915619      0.921700      0.921700     
  12684.264  0.915602      0.915602      0.921325      0.921325     
  12687.516  0.916187      0.916187      0.920949      0.920949     
  12690.809  0.916286      0.916286      0.920568      0.920568     
  12694.082  0.916846      0.916846      0.920191      0.920191     
  12697.344  0.917342      0.917342      0.919815      0.919815     
  12700.558  0.917165      0.917165      0.919446      0.919446     
  12703.845  0.917412      0.917412      0.919070      0.919070     
  12707.096  0.918600      0.918600      0.918698      0.918698     
  12710.499  0.919683      0.919683      0.918309      0.918309     
  12713.777  0.921127      0.921127      0.917936      0.917936     
  12717.110  0.922441      0.922441      0.917557      0.917557     
  12720.474  0.923910      0.923910      0.917176      0.917176     
  12723.893  0.925682      0.925682      0.916789      0.916789     
  12727.165  0.927997      0.927997      0.916420      0.916420     
  12730.470  0.930201      0.930201      0.916048      0.916048     
  12733.799  0.931156      0.931156      0.915674      0.915674     
  12737.221  0.930913      0.930913      0.915290      0.915290     
  12740.541  0.930136      0.930136      0.914919      0.914919     
  12743.799  0.927930      0.927930      0.914556      0.914556     
  12747.159  0.926044      0.926044      0.914183      0.914183     
  12750.464  0.924697      0.924697      0.913816      0.913816     
  12753.781  0.922893      0.922893      0.913449      0.913449     
  12757.039  0.919902      0.919902      0.913090      0.913090     
  12760.336  0.917167      0.917167      0.912728      0.912728     
  12763.634  0.914337      0.914337      0.912366      0.912366     
  12767.071  0.911485      0.911485      0.911990      0.911990     
  12770.383  0.908838      0.908838      0.911629      0.911629     
  12773.717  0.905819      0.905819      0.911267      0.911267     
  12777.025  0.903566      0.903566      0.910908      0.910908     
  12780.451  0.901284      0.901284      0.910539      0.910539     
  12783.819  0.899364      0.899364      0.910177      0.910177     
  12787.132  0.896538      0.896538      0.909822      0.909822     
  12790.445  0.895098      0.895098      0.909468      0.909468     
  12793.832  0.894885      0.894885      0.909108      0.909108     
  12797.150  0.895494      0.895494      0.908756      0.908756     
  12800.480  0.895923      0.895923      0.908405      0.908405     
  12803.792  0.896636      0.896636      0.908056      0.908056     
  12807.109  0.897877      0.897877      0.907708      0.907708     
  12810.588  0.899099      0.899099      0.907345      0.907345     
  12813.905  0.901103      0.901103      0.907000      0.907000     
  12817.230  0.901909      0.901909      0.906655      0.906655     
  12820.628  0.902821      0.902821      0.906304      0.906304     
  12824.035  0.903597      0.903597      0.905954      0.905954     
  12827.375  0.905067      0.905067      0.905611      0.905611     
  12830.772  0.905330      0.905330      0.905265      0.905265     
  12834.123  0.905447      0.905447      0.904924      0.904924     
  12837.564  0.905731      0.905731      0.904575      0.904575     
  12840.930  0.906021      0.906021      0.904235      0.904235     
  12844.286  0.905863      0.905863      0.903898      0.903898     
  12847.623  0.906266      0.906266      0.903563      0.903563     
  12851.004  0.907617      0.907617      0.903226      0.903226     
  12854.387  0.909708      0.909708      0.902889      0.902889     
  12857.733  0.912279      0.912279      0.902558      0.902558     
  12861.091  0.914349      0.914349      0.902227      0.902227     
  12864.442  0.915220      0.915220      0.901897      0.901897     
  12867.870  0.916800      0.916800      0.901562      0.901562     
  12871.227  0.917747      0.917747      0.901234      0.901234     
  12874.586  0.917329      0.917329      0.900908      0.900908     
  12877.985  0.916178      0.916178      0.900579      0.900579     
  12881.382  0.913970      0.913970      0.900251      0.900251     
  12884.803  0.910708      0.910708      0.899923      0.899923     
  12888.110  0.905451      0.905451      0.899607      0.899607     
  12891.479  0.901449      0.901449      0.899286      0.899286     
  12894.850  0.897282      0.897282      0.898966      0.898966     
  12898.355  0.895018      0.895018      0.898635      0.898635     
  12901.678  0.893704      0.893704      0.898322      0.898322     
  12905.036  0.893266      0.893266      0.898007      0.898007     
  12908.421  0.893357      0.893357      0.897691      0.897691     
  12911.940  0.893897      0.893897      0.897364      0.897364     
  12915.326  0.893626      0.893626      0.897050      0.897050     
  12918.751  0.892462      0.892462      0.896734      0.896734     
  12922.095  0.890945      0.890945      0.896427      0.896427     
  12925.577  0.889145      0.889145      0.896108      0.896108     
  12928.972  0.887425      0.887425      0.895799      0.895799     
  12932.336  0.885773      0.885773      0.895494      0.895494     
  12935.726  0.885101      0.885101      0.895187      0.895187     
  12939.136  0.883604      0.883604      0.894880      0.894880     
  12942.566  0.882724      0.882724      0.894573      0.894573     
  12945.920  0.882138      0.882138      0.894274      0.894274     
  12949.319  0.882488      0.882488      0.893971      0.893971     
  12952.783  0.883142      0.883142      0.893665      0.893665     
  12956.333  0.883916      0.883916      0.893352      0.893352     
  12959.749  0.885005      0.885005      0.893052      0.893052     
  12963.162  0.885920      0.885920      0.892754      0.892754     
  12966.596  0.887514      0.887514      0.892455      0.892455     
  12970.092  0.889697      0.889697      0.892152      0.892152     
  12973.460  0.891555      0.891555      0.891862      0.891862     
  12976.884  0.894276      0.894276      0.891567      0.891567     
  12980.301  0.896986      0.896986      0.891275      0.891275     
  12983.785  0.899639      0.899639      0.890979      0.890979     
  12987.206  0.901481      0.901481      0.890688      0.890688     
  12990.627  0.903174      0.903174      0.890400      0.890400     
  12994.114  0.903410      0.903410      0.890107      0.890107     
  12997.552  0.901587      0.901587      0.889819      0.889819     
  13004.178  0.899509      0.899509      0.889268      0.889268     
  13008.141  0.897683      0.897683      0.888941      0.888941     
  13012.199  0.896590      0.896590      0.888607      0.888607     
  13016.308  0.896237      0.896237      0.888272      0.888272     
  13020.337  0.894128      0.894128      0.887944      0.887944     
  13024.361  0.891518      0.891518      0.887619      0.887619     
  13028.398  0.889753      0.889753      0.887294      0.887294     
  13032.500  0.888373      0.888373      0.886966      0.886966     
  13036.490  0.885385      0.885385      0.886649      0.886649     
  13040.540  0.882532      0.882532      0.886328      0.886328     
  13044.786  0.880628      0.880628      0.885994      0.885994     
  13048.813  0.880204      0.880204      0.885679      0.885679     
  13052.901  0.881919      0.881919      0.885361      0.885361     
  13056.915  0.885128      0.885128      0.885050      0.885050     
  13061.054  0.887840      0.887840      0.884731      0.884731     
  13065.127  0.889607      0.889607      0.884420      0.884420     
  13069.190  0.889951      0.889951      0.884110      0.884110     
  13073.320  0.887864      0.887864      0.883798      0.883798     
  13077.401  0.884865      0.884865      0.883490      0.883490     
  13081.426  0.879675      0.879675      0.883189      0.883189     
  13085.530  0.874913      0.874913      0.882884      0.882884     
  13089.639  0.872360      0.872360      0.882580      0.882580     
  13093.728  0.871237      0.871237      0.882279      0.882279     
  13097.874  0.871519      0.871519      0.881976      0.881976     
  13101.974  0.872287      0.872287      0.881677      0.881677     
  13106.074  0.873538      0.873538      0.881381      0.881381     
  13110.150  0.873635      0.873635      0.881088      0.881088     
  13114.241  0.873286      0.873286      0.880796      0.880796     
  13118.359  0.873103      0.873103      0.880503      0.880503     
  13122.528  0.873195      0.873195      0.880209      0.880209     
  13126.576  0.874339      0.874339      0.879925      0.879925     
  13130.687  0.876671      0.876671      0.879638      0.879638     
  13134.799  0.879036      0.879036      0.879353      0.879353     
  13138.910  0.882322      0.882322      0.879069      0.879069     
  13143.103  0.886226      0.886226      0.878782      0.878782     
  13147.289  0.889145      0.889145      0.878497      0.878497     
  13151.412  0.890986      0.890986      0.878218      0.878218     
  13155.502  0.891811      0.891811      0.877942      0.877942     
  13159.597  0.890068      0.890068      0.877667      0.877667     
  13163.673  0.888344      0.888344      0.877393      0.877393     
  13167.844  0.886368      0.886368      0.877114      0.877114     
  13171.919  0.883317      0.883317      0.876842      0.876842     
  13176.107  0.880929      0.880929      0.876563      0.876563     
  13180.196  0.879655      0.879655      0.876292      0.876292     
  13184.343  0.878226      0.878226      0.876018      0.876018     
  13188.515  0.876541      0.876541      0.875743      0.875743     
  13192.675  0.875868      0.875868      0.875470      0.875470     
  13196.970  0.875233      0.875233      0.875188      0.875188     
  13201.112  0.875172      0.875172      0.874918      0.874918     
  13205.254  0.874892      0.874892      0.874649      0.874649     
  13209.475  0.874092      0.874092      0.874375      0.874375     
  13213.780  0.872354      0.872354      0.874097      0.874097     
  13217.897  0.870624      0.870624      0.873833      0.873833     
  13222.081  0.868641      0.868641      0.873565      0.873565     
  13226.296  0.868470      0.868470      0.873296      0.873296     
  13230.488  0.868692      0.868692      0.873029      0.873029     
  13234.665  0.868456      0.868456      0.872765      0.872765     
  13238.846  0.868512      0.868512      0.872501      0.872501     
  13243.271  0.868626      0.868626      0.872224      0.872224     
  13247.444  0.868323      0.868323      0.871963      0.871963     
  13251.640  0.867421      0.867421      0.871702      0.871702     
  13255.842  0.866530      0.866530      0.871442      0.871442     
  13260.172  0.865031      0.865031      0.871175      0.871175     
  13264.368  0.864198      0.864198      0.870917      0.870917     
  13268.541  0.864410      0.864410      0.870663      0.870663     
  13272.692  0.865215      0.865215      0.870410      0.870410     
  13276.911  0.866603      0.866603      0.870155      0.870155     
  13281.156  0.868062      0.868062      0.869900      0.869900     
  13285.313  0.868681      0.868681      0.869651      0.869651     
  13289.762  0.869209      0.869209      0.869386      0.869386     
  13293.999  0.869317      0.869317      0.869135      0.869135     
  13298.196  0.869192      0.869192      0.868888      0.868888     
  13302.417  0.869355      0.869355      0.868641      0.868641     
  13306.819  0.870403      0.870403      0.868384      0.868384     
  13311.025  0.871757      0.871757      0.868141      0.868141     
  13315.255  0.873056      0.873056      0.867897      0.867897     
  13319.573  0.874296      0.874296      0.867650      0.867650     
  13323.881  0.874579      0.874579      0.867405      0.867405     
  13328.187  0.875098      0.875098      0.867161      0.867161     
  13332.366  0.874631      0.874631      0.866926      0.866926     
  13336.791  0.874058      0.874058      0.866679      0.866679     
  13341.019  0.871947      0.871947      0.866444      0.866444     
  13345.262  0.869879      0.869879      0.866211      0.866211     
  13349.512  0.868060      0.868060      0.865978      0.865978     
  13353.928  0.866892      0.866892      0.865737      0.865737     
  13358.187  0.866483      0.866483      0.865507      0.865507     
  13362.446  0.866445      0.866445      0.865279      0.865279     
  13366.785  0.866553      0.866553      0.865047      0.865047     
  13371.109  0.866073      0.866073      0.864819      0.864819     
  13375.341  0.864874      0.864874      0.864596      0.864596     
  13379.652  0.862912      0.862912      0.864372      0.864372     
  13383.982  0.862060      0.862060      0.864147      0.864147     
  13388.231  0.861307      0.861307      0.863929      0.863929     
  13392.538  0.860089      0.860089      0.863710      0.863710     
  13396.789  0.859637      0.859637      0.863495      0.863495     
  13401.085  0.859129      0.859129      0.863279      0.863279     
  13405.375  0.858922      0.858922      0.863066      0.863066     
  13409.668  0.859087      0.859087      0.862854      0.862854     
  13413.963  0.859160      0.859160      0.862643      0.862643     
  13418.402  0.859062      0.859062      0.862428      0.862428     
  13422.641  0.859207      0.859207      0.862224      0.862224     
  13426.948  0.859011      0.859011      0.862018      0.862018     
  13431.334  0.859315      0.859315      0.861811      0.861811     
  13435.695  0.859798      0.859798      0.861607      0.861607     
  13440.000  0.859121      0.859121      0.861407      0.861407     
  13444.275  0.858744      0.858744      0.861210      0.861210     
  13448.774  0.858303      0.858303      0.861005      0.861005     
  13453.107  0.858486      0.858486      0.860809      0.860809     
  13457.414  0.858850      0.858850      0.860617      0.860617     
  13461.725  0.859723      0.859723      0.860426      0.860426     
  13466.163  0.860579      0.860579      0.860232      0.860232     
  13470.514  0.860740      0.860740      0.860043      0.860043     
  13474.808  0.861565      0.861565      0.859859      0.859859     
  13479.171  0.862503      0.862503      0.859674      0.859674     
  13483.491  0.862695      0.862695      0.859493      0.859493     
  13487.845  0.862746      0.862746      0.859312      0.859312     
  13492.184  0.862158      0.862158      0.859133      0.859133     
  13496.827  0.861146      0.861146      0.858945      0.858945     
  13505.973  0.860222      0.860222      0.858580      0.858580     
  13512.109  0.860780      0.860780      0.858341      0.858341     
  13518.092  0.860728      0.860728      0.858111      0.858111     
  13524.064  0.860937      0.860937      0.857886      0.857886     
  13530.230  0.860613      0.860613      0.857658      0.857658     
  13536.286  0.860058      0.860058      0.857437      0.857437     
  13542.320  0.859468      0.859468      0.857222      0.857222     
  13548.515  0.858871      0.858871      0.857005      0.857005     
  13554.585  0.857229      0.857229      0.856797      0.856797     
  13560.762  0.856863      0.856863      0.856589      0.856589     
  13566.797  0.855820      0.855820      0.856390      0.856390     
  13572.905  0.854659      0.854659      0.856193      0.856193     
  13579.144  0.853969      0.853969      0.855997      0.855997     
  13585.238  0.852253      0.852253      0.855809      0.855809     
  13591.287  0.850904      0.850904      0.855627      0.855627     
  13597.539  0.850245      0.850245     
  13603.721  0.848544      0.848544     
  13609.886  0.848594      0.848594     
  13615.952  0.848517      0.848517     
  13622.030  0.848783      0.848783     
  13628.379  0.849960      0.849960     
  13634.532  0.852066      0.852066     
  13640.701  0.853998      0.853998     
  13646.949  0.855908      0.855908     
  13653.090  0.857325      0.857325     
  13659.287  0.858220      0.858220     
  13665.396  0.856937      0.856937     
  13671.519  0.855102      0.855102     
  13677.901  0.854128      0.854128     
  13684.047  0.852812      0.852812     
  13690.325  0.852745      0.852745     
  13696.550  0.853009      0.853009     
