# Pre edge removal and derivative
#       SAMPLE: Au300K                                  
#     
# pre-edge limits:     11699.999 11890.000
# linear pre-edge: ax+b    
# linear coefficients a, b:-0.39798E-03   5.8176     
#     
# Edge Energy:         11915.000
#     
# White line energy:   11947.036
#     
#   1_E(eV)  2_abs-PE  3_der1   4_der2   5_noise
   11700.      0.28059E-02   0.0000       0.0000       0.0000     
   11710.      0.21231E-02 -0.71803E-04 -0.67906E-06  0.33990E-04 
   11720.      0.13689E-02 -0.82699E-04 -0.14958E-05  0.75202E-04 
   11730.      0.46461E-03 -0.64486E-04  0.51218E-05 -0.25817E-03 
   11740.      0.74706E-04 -0.63905E-04 -0.50089E-05  0.25220E-03 
   11750.     -0.81692E-03 -0.68185E-04  0.41462E-05 -0.20974E-03 
   11760.     -0.12951E-02 -0.23867E-04  0.46389E-05 -0.23741E-03 
   11770.     -0.12992E-02 -0.88203E-05 -0.16611E-05  0.85356E-04 
   11780.     -0.14741E-02 -0.15714E-04  0.30037E-06 -0.15499E-04 
   11791.     -0.16184E-02 -0.63231E-05  0.15471E-05 -0.79978E-04 
   11801.     -0.16027E-02 -0.19300E-04 -0.40882E-05  0.21252E-03 
   11811.     -0.20134E-02  0.11262E-05  0.80501E-05 -0.42313E-03 
   11821.     -0.15777E-02  0.27801E-04 -0.28501E-05  0.14945E-03 
   11832.     -0.14429E-02  0.22600E-04  0.18232E-05 -0.96779E-04 
   11842.     -0.11101E-02  0.61407E-04  0.56928E-05 -0.30393E-03 
   11852.     -0.17787E-03  0.79766E-04 -0.21465E-05  0.11386E-03 
   11863.      0.53226E-03  0.94495E-04  0.49922E-05 -0.26633E-03 
   11873.      0.17740E-02  0.23063E-03  0.21405E-04 -0.11377E-02 
   11883.      0.52850E-02  0.48500E-03  0.27911E-04 -0.14864E-02 
   11893.      0.11792E-01  0.95771E-03  0.72872E-04 -0.29010E-02 
   11901.      0.21693E-01  0.17887E-02  0.23177E-03 -0.86788E-03 
   11902.      0.23922E-01  0.22181E-02 -0.14904E-03  0.71418E-04 
   11903.      0.26035E-01  0.25100E-02  0.73032E-03 -0.36436E-03 
   11904.      0.28947E-01  0.33227E-02  0.90388E-03 -0.44362E-03 
   11905.      0.32601E-01  0.38141E-02  0.88853E-04 -0.42791E-04 
   11906.      0.36436E-01  0.39371E-02  0.16354E-03 -0.76891E-04 
   11907.      0.40235E-01  0.44804E-02  0.95225E-03 -0.45177E-03 
   11908.      0.45194E-01  0.53909E-02  0.87427E-03 -0.45598E-03 
   11909.      0.51265E-01  0.63318E-02  0.98101E-03 -0.49788E-03 
   11910.      0.57928E-01  0.75327E-02  0.14477E-02 -0.68950E-03 
   11911.      0.65969E-01  0.89054E-02  0.13432E-02 -0.66071E-03 
   11912.      0.75617E-01  0.11042E-01  0.29051E-02 -0.14891E-02 
   11913.      0.88343E-01  0.15141E-01  0.53180E-02 -0.25960E-02 
   11914.      0.10540      0.20187E-01  0.49427E-02 -0.23630E-02 
   11915.      0.12792      0.28760E-01  0.12349E-01 -0.61376E-02 
   11916.      0.16276      0.45649E-01  0.21499E-01 -0.10717E-01 
   11917.      0.21909      0.68672E-01  0.24603E-01 -0.12277E-01 
   11918.      0.29997      0.86783E-01  0.11393E-01 -0.59466E-02 
   11919.      0.39674      0.99874E-01  0.14274E-01 -0.73986E-02 
   11920.      0.50303      0.97632E-01 -0.19166E-01  0.94396E-02 
   11921.      0.59053      0.72586E-01 -0.31257E-01  0.15442E-01 
   11922.      0.64730      0.46750E-01 -0.20906E-01  0.10151E-01 
   11923.      0.68287      0.27581E-01 -0.17833E-01  0.88158E-02 
   11924.      0.70183      0.12404E-01 -0.12752E-01  0.62393E-02 
   11925.      0.70771      0.34279E-02 -0.53819E-02  0.26411E-02 
   11926.      0.70849      0.77385E-03  0.25435E-04 -0.12637E-04 
   11927.      0.70926      0.41164E-02  0.66797E-02 -0.33186E-02 
   11928.      0.71682      0.10636E-01  0.63343E-02 -0.32114E-02 
   11929.      0.73062      0.16872E-01  0.60844E-02 -0.30513E-02 
   11930.      0.75064      0.19464E-01 -0.91140E-03  0.45294E-03 
   11931.      0.76944      0.16692E-01 -0.47349E-02  0.22688E-02 
   11932.      0.78337      0.12217E-01 -0.43399E-02  0.21426E-02 
   11933.      0.79362      0.76605E-02 -0.47617E-02  0.24188E-02 
   11934.      0.79886      0.30840E-02 -0.43662E-02  0.21700E-02 
   11935.      0.79977      0.40299E-03 -0.10040E-02  0.50701E-03 
   11936.      0.79966      0.62014E-03  0.14491E-02 -0.71857E-03 
   11937.      0.80098      0.31885E-02  0.37364E-02 -0.18253E-02 
   11938.      0.80600      0.65888E-02  0.31385E-02 -0.15379E-02 
   11939.      0.81400      0.78685E-02 -0.54941E-03  0.27300E-03 
   11940.      0.82168      0.84051E-02  0.16177E-02 -0.81199E-03 
   11941.      0.83083      0.13348E-01  0.83393E-02 -0.40949E-02 
   11942.      0.84813      0.23357E-01  0.11551E-01 -0.59753E-02 
   11943.      0.87868      0.31587E-01  0.45488E-02 -0.24362E-02 
   11944.      0.91347      0.33616E-01 -0.64380E-03  0.32962E-03 
   11945.      0.94673      0.26979E-01 -0.12640E-01  0.63012E-02 
   11946.      0.96735      0.11869E-01 -0.17687E-01  0.87550E-02 
   11947.      0.97040     -0.39250E-02 -0.13623E-01  0.71759E-02 
   11948.      0.95880     -0.14969E-01 -0.78510E-02  0.41731E-02 
   11949.      0.93976     -0.19199E-01 -0.35937E-03  0.18040E-03 
   11950.      0.92033     -0.19416E-01 -0.75103E-04  0.36949E-04 
   11951.      0.90124     -0.15908E-01  0.71505E-02 -0.35143E-02 
   11952.      0.88886     -0.89767E-02  0.68214E-02 -0.33629E-02 
   11953.      0.88336     -0.32809E-02  0.45858E-02 -0.23239E-02 
   11954.      0.88235     -0.18752E-02 -0.17677E-02  0.92313E-03 
   11955.      0.87954     -0.39345E-02 -0.23038E-02  0.11599E-02 
   11956.      0.87448     -0.59245E-02 -0.16824E-02  0.82698E-03 
   11957.      0.86779     -0.59721E-02  0.15954E-02 -0.77551E-03 
   11958.      0.86270     -0.32686E-02  0.38395E-02 -0.19135E-02 
   11959.      0.86133      0.74960E-03  0.41715E-02 -0.21170E-02 
   11960.      0.86418      0.49841E-02  0.42345E-02 -0.21490E-02 
   11961.      0.87140      0.80780E-02  0.19130E-02 -0.96503E-03 
   11962.      0.88039      0.10847E-01  0.36208E-02 -0.18049E-02 
   11963.      0.89308      0.13245E-01  0.11666E-02 -0.59733E-03 
   11964.      0.90720      0.14468E-01  0.12609E-02 -0.63599E-03 
   11965.      0.92212      0.15025E-01 -0.15357E-03  0.75255E-04 
   11966.      0.93695      0.14793E-01 -0.31407E-03  0.15656E-03 
   11967.      0.95166      0.12760E-01 -0.36687E-02  0.19173E-02 
   11968.      0.96298      0.80652E-02 -0.54612E-02  0.29108E-02 
   11969.      0.96836      0.23537E-02 -0.55271E-02  0.30253E-02 
   11970.      0.96779     -0.24457E-02 -0.37326E-02  0.19454E-02 
   11971.      0.96354     -0.60407E-02 -0.33940E-02  0.16778E-02 
   11972.      0.95571     -0.79619E-02 -0.46158E-03  0.23636E-03 
   11973.      0.94742     -0.76901E-02  0.10128E-02 -0.50427E-03 
   11974.      0.94035     -0.66080E-02  0.11450E-02 -0.58084E-03 
   11975.      0.93413     -0.58669E-02  0.32623E-03 -0.16532E-03 
   11976.      0.92852     -0.53080E-02  0.78967E-03 -0.39435E-03 
   11977.      0.92353     -0.43889E-02  0.10208E-02 -0.53876E-03 
   11978.      0.91952     -0.41800E-02 -0.61168E-03  0.32539E-03 
   11979.      0.91492     -0.38871E-02  0.11905E-02 -0.62171E-03 
   11980.      0.91157     -0.24617E-02  0.15714E-02 -0.84955E-03 
   11981.      0.90983     -0.16184E-02  0.50143E-04 -0.27214E-04 
   11982.      0.90820     -0.19794E-02 -0.75436E-03  0.39743E-03 
   11983.      0.90576     -0.24931E-02 -0.24644E-03  0.12984E-03 
   11984.      0.90308     -0.31765E-02 -0.10730E-02  0.57794E-03 
   11986.      0.89915     -0.46638E-02 -0.17919E-02  0.96613E-03 
   11987.      0.89341     -0.56711E-02 -0.15215E-03  0.77585E-04 
   11988.      0.88770     -0.62593E-02 -0.10073E-02  0.51913E-03 
   11989.      0.88068     -0.64769E-02  0.58053E-03 -0.29739E-03 
   11990.      0.87457     -0.53680E-02  0.16235E-02 -0.81805E-03 
   11991.      0.86993     -0.40448E-02  0.10093E-02 -0.51166E-03 
   11992.      0.86641     -0.24035E-02  0.22652E-02 -0.11337E-02 
   11993.      0.86513     -0.31205E-03  0.19070E-02 -0.96308E-03 
   11994.      0.86578      0.91111E-03  0.52658E-03 -0.26646E-03 
   11995.      0.86697      0.13823E-02  0.40708E-03 -0.20907E-03 
   11996.      0.86858      0.19497E-02  0.71652E-03 -0.36398E-03 
   11997.      0.87089      0.24029E-02  0.18455E-03 -0.91997E-04 
   11998.      0.87338      0.28272E-02  0.65860E-03 -0.33489E-03 
   11999.      0.87660      0.37707E-02  0.12071E-02 -0.61935E-03 
   12000.      0.88102      0.48717E-02  0.97229E-03 -0.49297E-03 
   12001.      0.88641      0.58622E-02  0.99509E-03 -0.50454E-03 
   12002.      0.89282      0.68688E-02  0.10005E-02 -0.51082E-03 
   12003.      0.90029      0.76448E-02  0.53459E-03 -0.27375E-03 
   12004.      0.90830      0.75406E-02 -0.74240E-03  0.37829E-03 
   12005.      0.91552      0.65576E-02 -0.11874E-02  0.62297E-03 
   12006.      0.92171      0.48073E-02 -0.22027E-02  0.11843E-02 
   12007.      0.92550      0.28809E-02 -0.15362E-02  0.80059E-03 
   12008.      0.92761      0.16717E-02 -0.84405E-03  0.42795E-03 
   12009.      0.92887      0.63646E-03 -0.12091E-02  0.61606E-03 
   12010.      0.92889     -0.60618E-03 -0.11994E-02  0.66585E-03 
   12011.      0.92754     -0.14957E-02 -0.49379E-03  0.26710E-03 
   12012.      0.92581     -0.20136E-02 -0.52930E-03  0.25703E-03 
   12013.      0.92357     -0.25684E-02 -0.58211E-03  0.29670E-03 
   12014.      0.92060     -0.30908E-02 -0.44604E-03  0.23382E-03 
   12015.      0.91725     -0.29626E-02  0.70540E-03 -0.36050E-03 
   12016.      0.91461     -0.29510E-02 -0.68293E-03  0.34867E-03 
   12017.      0.91128     -0.32760E-02  0.39958E-04 -0.20118E-04 
   12018.      0.90804     -0.24486E-02  0.16011E-02 -0.81413E-03 
   12019.      0.90636     -0.19215E-02 -0.55312E-03  0.28407E-03 
   12020.      0.90414     -0.17096E-02  0.65114E-03 -0.66128E-03 
   12022.      0.90169     -0.66787E-03  0.55024E-03 -0.10971E-02 
   12024.      0.90146      0.32732E-03  0.44191E-03 -0.89900E-03 
   12026.      0.90305      0.78483E-03  0.11680E-04 -0.23521E-04 
   12028.      0.90461      0.72214E-03 -0.75256E-04  0.14713E-03 
   12030.      0.90590      0.43354E-03 -0.21467E-03  0.42741E-03 
   12032.      0.90634     -0.48177E-03 -0.70288E-03  0.13987E-02 
   12034.      0.90397     -0.14058E-02 -0.22186E-03  0.44794E-03 
   12036.      0.90068     -0.19685E-02 -0.33578E-03  0.68777E-03 
   12038.      0.89600     -0.28932E-02 -0.58339E-03  0.11725E-02 
   12040.      0.88910     -0.33042E-02  0.17483E-03 -0.34566E-03 
   12042.      0.88286     -0.31373E-02 -0.69400E-05  0.13914E-04 
   12044.      0.87654     -0.27329E-02  0.40873E-03 -0.82813E-03 
   12046.      0.87186     -0.17516E-02  0.56872E-03 -0.11420E-02 
   12048.      0.86951     -0.65202E-03  0.53067E-03 -0.10576E-02 
   12050.      0.86926      0.41807E-03  0.54361E-03 -0.10742E-02 
   12052.      0.87116      0.13493E-02  0.39353E-03 -0.77644E-03 
   12054.      0.87463      0.23276E-02  0.58077E-03 -0.11882E-02 
   12056.      0.88061      0.26955E-02 -0.21812E-03  0.44200E-03 
   12058.      0.88550      0.24627E-02 -0.13099E-04  0.26673E-04 
   12060.      0.89055      0.22892E-02 -0.15553E-03  0.33000E-03 
   12062.      0.89493      0.18528E-02 -0.27107E-03  0.56316E-03 
   12064.      0.89811      0.14890E-02 -0.86707E-04  0.17664E-03 
   12066.      0.90094      0.12902E-02 -0.11084E-03  0.22334E-03 
   12068.      0.90330      0.94489E-03 -0.23224E-03  0.47166E-03 
   12070.      0.90474      0.63433E-03 -0.74985E-04  0.15618E-03 
   12072.      0.90588      0.44679E-03 -0.10778E-03  0.22867E-03 
   12074.      0.90658      0.21349E-03 -0.11945E-03  0.25035E-03 
   12076.      0.90676     -0.17913E-03 -0.26680E-03  0.54782E-03 
   12078.      0.90585     -0.64506E-03 -0.19190E-03  0.39872E-03 
   12080.      0.90413     -0.83973E-03  0.90007E-06 -0.18811E-05 
   12082.      0.90242     -0.59242E-03  0.24091E-03 -0.50399E-03 
   12084.      0.90171     -0.16308E-04  0.32318E-03 -0.67280E-03 
   12087.      0.90235      0.74323E-03  0.42566E-03 -0.86796E-03 
   12089.      0.90470      0.12668E-02  0.93504E-04 -0.18813E-03 
   12091.      0.90743      0.13766E-02  0.15824E-04 -0.32266E-04 
   12093.      0.91026      0.13089E-02 -0.82084E-04  0.17046E-03 
   12095.      0.91276      0.55059E-03 -0.66114E-03  0.13770E-02 
   12097.      0.91251     -0.78229E-03 -0.64418E-03  0.13450E-02 
   12099.      0.90956     -0.19086E-02 -0.45428E-03  0.96479E-03 
   12101.      0.90463     -0.29463E-02 -0.55021E-03  0.11794E-02 
   12103.      0.89736     -0.37346E-02 -0.21414E-03  0.44637E-03 
   12105.      0.88939     -0.38895E-02  0.62698E-04 -0.12931E-03 
   12107.      0.88156     -0.30236E-02  0.79177E-03 -0.16256E-02 
   12109.      0.87711     -0.17513E-02  0.46403E-03 -0.95225E-03 
   12111.      0.87449     -0.77723E-03  0.49159E-03 -0.10335E-02 
   12113.      0.87392     -0.20927E-03  0.62217E-04 -0.13150E-03 
   12115.      0.87363     -0.18257E-03 -0.35675E-04  0.77822E-04 
   12117.      0.87316     -0.11064E-03  0.10387E-03 -0.22956E-03 
   12119.      0.87316      0.29537E-04  0.29639E-04 -0.64762E-04 
   12121.      0.87328      0.15669E-03  0.92052E-04 -0.20095E-03 
   12123.      0.87381      0.41418E-03  0.15704E-03 -0.33137E-03 
   12125.      0.87498      0.55724E-03 -0.18096E-04  0.36827E-04 
   12127.      0.87606      0.60421E-03  0.64100E-04 -0.13270E-03 
   12130.      0.87744      0.95098E-03  0.27429E-03 -0.57802E-03 
   12132.      0.87996      0.14252E-02  0.18922E-03 -0.39219E-03 
   12134.      0.88324      0.18350E-02  0.21344E-03 -0.44215E-03 
   12136.      0.88743      0.22314E-02  0.17835E-03 -0.35999E-03 
   12138.      0.89220      0.24077E-02 -0.29175E-05  0.60044E-05 
   12140.      0.89720      0.25397E-02  0.13180E-03 -0.27661E-03 
   12142.      0.90259      0.29280E-02  0.24950E-03 -0.51406E-03 
   12144.      0.90910      0.33898E-02  0.20589E-03 -0.42231E-03 
   12146.      0.91632      0.29558E-02 -0.63645E-03  0.12971E-02 
   12148.      0.92102      0.21500E-02 -0.15999E-03  0.33339E-03 
   12150.      0.92509      0.14078E-02 -0.56946E-03  0.11767E-02 
   12152.      0.92676      0.17232E-03 -0.64266E-03  0.13416E-02 
   12154.      0.92576     -0.10127E-02 -0.51040E-03  0.10940E-02 
   12156.      0.92257     -0.17875E-02 -0.23640E-03  0.51381E-03 
   12158.      0.91830     -0.23487E-02 -0.30322E-03  0.65331E-03 
   12160.      0.91284     -0.27924E-02 -0.12558E-03  0.26452E-03 
   12162.      0.90683     -0.30582E-02 -0.13440E-03  0.27896E-03 
   12164.      0.90038     -0.32513E-02 -0.54052E-04  0.11677E-03 
   12166.      0.89330     -0.36667E-02 -0.34089E-03  0.75687E-03 
   12168.      0.88495     -0.41912E-02 -0.15919E-03  0.34321E-03 
   12171.      0.87590     -0.40989E-02  0.24779E-03 -0.53549E-03 
   12173.      0.86790     -0.31093E-02  0.70469E-03 -0.15207E-02 
   12175.      0.86297     -0.16211E-02  0.72871E-03 -0.15695E-02 
   12177.      0.86118     -0.24967E-03  0.58958E-03 -0.12839E-02 
   12179.      0.86194      0.66203E-03  0.28548E-03 -0.61572E-03 
   12181.      0.86392      0.13854E-02  0.41349E-03 -0.88159E-03 
   12183.      0.86767      0.22345E-02  0.40500E-03 -0.87985E-03 
   12185.      0.87324      0.25407E-02 -0.11089E-03  0.24207E-03 
   12187.      0.87829      0.21888E-02 -0.22622E-03  0.49266E-03 
   12189.      0.88238      0.15275E-02 -0.40421E-03  0.89465E-03 
   12191.      0.88471      0.43682E-03 -0.63407E-03  0.13967E-02 
   12193.      0.88423     -0.89188E-03 -0.64267E-03  0.13688E-02 
   12196.      0.88105     -0.19518E-02 -0.38462E-03  0.81803E-03 
   12198.      0.87617     -0.21790E-02  0.16492E-03 -0.34819E-03 
   12200.      0.87209     -0.14032E-02  0.58924E-03 -0.12476E-02 
   12202.      0.87043     -0.27701E-03  0.49839E-03 -0.10843E-02 
   12204.      0.87093      0.64368E-03  0.38371E-03 -0.83763E-03 
   12206.      0.87312      0.15030E-02  0.43868E-03 -0.95810E-03 
   12208.      0.87721      0.22557E-02  0.28165E-03 -0.61514E-03 
   12210.      0.88255      0.25238E-02 -0.25158E-04  0.55000E-04 
   12212.      0.88777      0.23416E-02 -0.14904E-03  0.32597E-03 
   12214.      0.89234      0.22250E-02  0.37572E-04 -0.81981E-04 
   12216.      0.89706      0.20870E-02 -0.17183E-03  0.36561E-03 
   12218.      0.90096      0.19472E-02  0.36501E-04 -0.77032E-04 
   12220.      0.90507      0.20368E-02  0.50291E-04 -0.10790E-03 
   12223.      0.90940      0.18122E-02 -0.26834E-03  0.57072E-03 
   12225.      0.91255      0.10413E-02 -0.48178E-03  0.10138E-02 
   12227.      0.91367      0.20629E-03 -0.32897E-03  0.70610E-03 
   12229.      0.91339     -0.59915E-03 -0.44838E-03  0.96286E-03 
   12231.      0.91121     -0.14738E-02 -0.39654E-03  0.84788E-03 
   12233.      0.90728     -0.22086E-02 -0.31066E-03  0.67914E-03 
   12235.      0.90196     -0.33221E-02 -0.75006E-03  0.16586E-02 
   12237.      0.89330     -0.38786E-02  0.22103E-03 -0.48784E-03 
   12239.      0.88566     -0.35862E-02  0.40774E-04 -0.16286E-03 
   12243.      0.87222     -0.30144E-02  0.29751E-03 -0.17385E-02 
   12246.      0.86455     -0.20511E-02  0.29833E-03 -0.13679E-02 
   12249.      0.85976     -0.81000E-03  0.52544E-03 -0.23716E-02 
   12252.      0.85970      0.41199E-03  0.28633E-03 -0.13074E-02 
   12255.      0.86226      0.99975E-03  0.10037E-03 -0.47928E-03 
   12258.      0.86590      0.13677E-02  0.13757E-03 -0.65842E-03 
   12261.      0.87070      0.14847E-02 -0.63191E-04  0.29113E-03 
   12264.      0.87491      0.10636E-02 -0.21424E-03  0.98733E-03 
   12267.      0.87715      0.58912E-03 -0.97275E-04  0.45775E-03 
   12270.      0.87852      0.26242E-03 -0.11564E-03  0.54471E-03 
   12273.      0.87878     -0.54216E-03 -0.41264E-03  0.19061E-02 
   12277.      0.87522     -0.13725E-02 -0.13375E-03  0.61743E-03 
   12280.      0.87044     -0.14485E-02  0.83707E-04 -0.38654E-03 
   12283.      0.86642     -0.90664E-03  0.27167E-03 -0.12657E-02 
   12286.      0.86491      0.92007E-04  0.37990E-03 -0.17955E-02 
   12289.      0.86700      0.14135E-02  0.48053E-03 -0.22637E-02 
   12292.      0.87356      0.21254E-02 -0.16740E-04  0.78091E-04 
   12295.      0.87998      0.17669E-02 -0.21401E-03  0.10356E-02 
   12298.      0.88452      0.11408E-02 -0.19042E-03  0.90189E-03 
   12301.      0.88706      0.55797E-03 -0.19345E-03  0.86764E-03 
   12304.      0.88786      0.61767E-04 -0.13644E-03  0.62503E-03 
   12307.      0.88742      0.13427E-03  0.18015E-03 -0.86405E-03 
   12310.      0.88872      0.58265E-03  0.10959E-03 -0.52342E-03 
   12313.      0.89101      0.78169E-03  0.19431E-04 -0.90586E-04 
   12316.      0.89349      0.34739E-03 -0.30315E-03  0.14202E-02 
   12319.      0.89314     -0.36289E-03 -0.16099E-03  0.75372E-03 
   12322.      0.89127     -0.10228E-02 -0.26833E-03  0.12747E-02 
   12326.      0.88681     -0.19979E-02 -0.36632E-03  0.17215E-02 
   12329.      0.87906     -0.28638E-02 -0.19749E-03  0.93798E-03 
   12332.      0.86913     -0.32209E-02 -0.33978E-04  0.16367E-03 
   12335.      0.85907     -0.30053E-02  0.17226E-03 -0.83638E-03 
   12338.      0.85042     -0.24052E-02  0.21371E-03 -0.10292E-02 
   12341.      0.84410     -0.13392E-02  0.47975E-03 -0.22475E-02 
   12344.      0.84224     -0.89822E-04  0.33314E-03 -0.15930E-02 
   12347.      0.84356      0.73494E-03  0.19820E-03 -0.96743E-03 
   12350.      0.84684      0.13033E-02  0.16609E-03 -0.80578E-03 
   12353.      0.85167      0.17983E-02  0.15291E-03 -0.73070E-03 
   12356.      0.85796      0.18600E-02 -0.11405E-03  0.53479E-03 
   12360.      0.86307      0.15305E-02 -0.10114E-03  0.47424E-03 
   12363.      0.86732      0.10851E-02 -0.18700E-03  0.90315E-03 
   12366.      0.86981      0.60887E-03 -0.12036E-03  0.57225E-03 
   12369.      0.87110      0.54967E-03  0.82446E-04 -0.38749E-03 
   12372.      0.87318      0.67484E-03 -0.79112E-06  0.37769E-05 
   12375.      0.87527      0.61139E-03 -0.40150E-04  0.19292E-03 
   12378.      0.87697      0.41294E-03 -0.88096E-04  0.42124E-03 
   12381.      0.87782      0.81138E-04 -0.12669E-03  0.60385E-03 
   12384.      0.87747     -0.37035E-03 -0.16526E-03  0.79254E-03 
   12387.      0.87553     -0.51763E-03  0.69285E-04 -0.34053E-03 
   12391.      0.87423     -0.18000E-03  0.14615E-03 -0.71760E-03 
   12394.      0.87438      0.17512E-03  0.81592E-04 -0.38978E-03 
   12397.      0.87532      0.34649E-03  0.29473E-04 -0.13907E-03 
   12400.      0.87651      0.15116E-03 -0.15634E-03  0.74053E-03 
   12403.      0.87623     -0.39338E-03 -0.19584E-03  0.94342E-03 
   12406.      0.87407     -0.10489E-02 -0.22566E-03  0.10955E-02 
   12409.      0.86969     -0.13668E-02  0.21653E-04 -0.10461E-03 
   12412.      0.86557     -0.11906E-02  0.91854E-04 -0.44235E-03 
   12415.      0.86230     -0.90220E-03  0.91808E-04 -0.46358E-03 
   12419.      0.85985     -0.81286E-03 -0.35432E-04  0.18058E-03 
   12422.      0.85712     -0.83856E-03  0.19644E-04 -0.97027E-04 
   12425.      0.85458     -0.70599E-03  0.65462E-04 -0.31593E-03 
   12428.      0.85272     -0.46726E-03  0.87366E-04 -0.42970E-03 
   12431.      0.85167     -0.30430E-03  0.16376E-04 -0.82113E-04 
   12434.      0.85079     -0.41584E-03 -0.88221E-04  0.42842E-03 
   12437.      0.84908     -0.52456E-03  0.18470E-04 -0.89491E-04 
   12440.      0.84753     -0.52562E-03 -0.18982E-04  0.93606E-04 
   12444.      0.84578     -0.55266E-03  0.17575E-05 -0.87221E-05 
   12447.      0.84405     -0.40463E-03  0.92255E-04 -0.45741E-03 
   12450.      0.84323      0.57867E-04  0.20281E-03 -0.99245E-03 
   12453.      0.84439      0.68449E-03  0.19768E-03 -0.96828E-03 
   12456.      0.84753      0.93076E-03 -0.39412E-04  0.20200E-03 
   12459.      0.85035      0.78592E-03 -0.51531E-04  0.25917E-03 
   12463.      0.85253      0.51527E-03 -0.12089E-03  0.59041E-03 
   12466.      0.85356      0.20144E-03 -0.78680E-04  0.39655E-03 
   12469.      0.85380      0.27524E-03  0.12405E-03 -0.63654E-03 
   12472.      0.85533      0.58332E-03  0.68855E-04 -0.34744E-03 
   12475.      0.85750      0.75306E-03  0.38401E-04 -0.18979E-03 
   12478.      0.86006      0.75412E-03 -0.37682E-04  0.18671E-03 
   12482.      0.86225      0.59911E-03 -0.60770E-04  0.30140E-03 
   12485.      0.86384      0.45385E-03 -0.31351E-04  0.15672E-03 
   12488.      0.86512      0.43297E-03  0.18216E-04 -0.90369E-04 
   12491.      0.86656      0.39564E-03 -0.41635E-04  0.20935E-03 
   12494.      0.86762      0.24236E-03 -0.54740E-04  0.27814E-03 
   12497.      0.86811      0.59765E-04 -0.59089E-04  0.30752E-03 
   12501.      0.86799     -0.25129E-03 -0.13390E-03  0.69468E-03 
   12504.      0.86652     -0.73155E-03 -0.16743E-03  0.83593E-03 
   12507.      0.86336     -0.10039E-02 -0.49257E-05  0.24976E-04 
   12510.      0.86013     -0.86537E-03  0.91575E-04 -0.46813E-03 
   12513.      0.85783     -0.92676E-03 -0.13060E-03  0.66118E-03 
   12517.      0.85424     -0.14707E-02 -0.21201E-03  0.10662E-02 
   12520.      0.84850     -0.16660E-02  0.89211E-04 -0.44540E-03 
   12523.      0.84371     -0.13152E-02  0.13323E-03 -0.66099E-03 
   12526.      0.84022     -0.98392E-03  0.76987E-04 -0.38305E-03 
   12529.      0.83750     -0.57913E-03  0.17983E-03 -0.89301E-03 
   12532.      0.83657      0.10490E-04  0.19362E-03 -0.96883E-03 
   12535.      0.83757      0.31667E-03 -0.50674E-07  0.25606E-06 
   12539.      0.83858      0.37417E-03  0.35448E-04 -0.18702E-03 
   12542.      0.84001      0.39129E-03 -0.24913E-04  0.13139E-03 
   12545.      0.84113      0.22588E-03 -0.78593E-04  0.39726E-03 
   12548.      0.84145      0.17278E-04 -0.52362E-04  0.26733E-03 
   12552.      0.84123     -0.21904E-03 -0.94835E-04  0.49149E-03 
   12555.      0.84003     -0.56104E-03 -0.11795E-03  0.60785E-03 
   12558.      0.83764     -0.10218E-02 -0.17004E-03  0.86655E-03 
   12561.      0.83351     -0.11991E-02  0.59092E-04 -0.29981E-03 
   12564.      0.83000     -0.10060E-02  0.61359E-04 -0.31932E-03 
   12568.      0.82703     -0.56043E-03  0.21254E-03 -0.11304E-02 
   12571.      0.82633      0.13301E-03  0.21712E-03 -0.11078E-02 
   12574.      0.82784      0.65599E-03  0.11107E-03 -0.55856E-03 
   12577.      0.83051      0.92779E-03  0.59789E-04 -0.30612E-03 
   12580.      0.83378      0.11699E-02  0.90572E-04 -0.47371E-03 
   12584.      0.83809      0.15136E-02  0.12186E-03 -0.63814E-03 
   12587.      0.84356      0.16839E-02 -0.16599E-04  0.86926E-04 
   12590.      0.84898      0.16114E-02 -0.28240E-04  0.14765E-03 
   12593.      0.85399      0.14168E-02 -0.92937E-04  0.47717E-03 
   12597.      0.85806      0.10661E-02 -0.12554E-03  0.64900E-03 
   12600.      0.86084      0.77809E-03 -0.53499E-04  0.27752E-03 
   12603.      0.86307      0.48591E-03 -0.12824E-03  0.66194E-03 
   12606.      0.86397      0.19880E-04 -0.16193E-03  0.83502E-03 
   12609.      0.86320     -0.31772E-03 -0.47766E-04  0.25202E-03 
   12613.      0.86190     -0.60732E-03 -0.13027E-03  0.69008E-03 
   12616.      0.85925     -0.96130E-03 -0.88138E-04  0.45734E-03 
   12619.      0.85571     -0.11181E-02 -0.92481E-05  0.47855E-04 
   12622.      0.85206     -0.12513E-02 -0.72605E-04  0.38553E-03 
   12626.      0.84755     -0.16779E-02 -0.18915E-03  0.10044E-02 
   12629.      0.84114     -0.21293E-02 -0.88804E-04  0.46224E-03 
   12632.      0.83381     -0.20015E-02  0.16886E-03 -0.87079E-03 
   12635.      0.82828     -0.14845E-02  0.15221E-03 -0.79392E-03 
   12639.      0.82423     -0.10415E-02  0.12042E-03 -0.64539E-03 
   12642.      0.82146     -0.60030E-03  0.14971E-03 -0.79600E-03 
   12645.      0.82031     -0.17235E-03  0.11371E-03 -0.59443E-03 
   12648.      0.82034      0.13427E-03  0.75806E-04 -0.39776E-03 
   12652.      0.82118      0.42412E-03  0.10207E-03 -0.54686E-03 
   12655.      0.82313      0.64606E-03  0.33823E-04 -0.17798E-03 
   12658.      0.82537      0.63073E-03 -0.43597E-04  0.22600E-03 
   12661.      0.82719      0.47772E-03 -0.50957E-04  0.26920E-03 
   12665.      0.82847      0.26022E-03 -0.82128E-04  0.44175E-03 
   12668.      0.82889     -0.12971E-03 -0.15554E-03  0.83764E-03 
   12671.      0.82763     -0.30747E-03  0.47339E-04 -0.25363E-03 
   12674.      0.82688     -0.15394E-03  0.46342E-04 -0.24958E-03 
   12678.      0.82662     -0.49814E-05  0.44000E-04 -0.24158E-03 
   12681.      0.82685      0.31593E-04 -0.22064E-04  0.11963E-03 
   12684.      0.82683      0.78846E-04  0.51557E-04 -0.27103E-03 
   12688.      0.82736      0.94814E-04 -0.41326E-04  0.22128E-03 
   12691.      0.82745      0.90834E-04  0.38769E-04 -0.20893E-03 
   12694.      0.82796      0.14594E-03 -0.52238E-05  0.27886E-04 
   12697.      0.82840      0.43828E-04 -0.57799E-04  0.30298E-03 
   12701.      0.82825      0.90723E-05  0.36191E-04 -0.19117E-03 
   12704.      0.82847      0.19895E-03  0.80180E-04 -0.42840E-03 
   12707.      0.82954      0.30875E-03 -0.12778E-04  0.70681E-04 
   12710.      0.83052      0.34258E-03  0.32985E-04 -0.18397E-03 
   12714.      0.83182      0.37683E-03 -0.12615E-04  0.68913E-04 
   12717.      0.83301      0.37520E-03  0.11479E-04 -0.64352E-04 
   12720.      0.83434      0.43115E-03  0.21663E-04 -0.12458E-03 
   12724.      0.83594      0.55350E-03  0.51183E-04 -0.28629E-03 
   12727.      0.83803      0.62067E-03 -0.11221E-04  0.60673E-04 
   12730.      0.84002      0.43056E-03 -0.10350E-03  0.56938E-03 
   12734.      0.84088      0.97435E-04 -0.95669E-04  0.54492E-03 
   12737.      0.84066     -0.13769E-03 -0.43704E-04  0.24826E-03 
   12741.      0.83996     -0.41145E-03 -0.12167E-03  0.65803E-03 
   12744.      0.83797     -0.55916E-03  0.31657E-04 -0.17327E-03 
   12747.      0.83626     -0.43746E-03  0.41605E-04 -0.23101E-03 
   12750.      0.83505     -0.42960E-03 -0.37132E-04  0.20353E-03 
   12754.      0.83342     -0.66011E-03 -0.10284E-03  0.55567E-03 
   12757.      0.83072     -0.78914E-03  0.24418E-04 -0.13114E-03 
   12760.      0.82825     -0.76199E-03 -0.78025E-05  0.42420E-04 
   12764.      0.82569     -0.76205E-03  0.76052E-05 -0.43103E-04 
   12767.      0.82312     -0.73556E-03  0.81062E-05 -0.46138E-04 
   12770.      0.82073     -0.76978E-03 -0.28826E-04  0.15915E-03 
   12774.      0.81800     -0.71635E-03  0.61023E-04 -0.33651E-03 
   12777.      0.81596     -0.60823E-03  0.40340E-05 -0.22859E-04 
   12780.      0.81390     -0.55808E-03  0.25525E-04 -0.14726E-03 
   12784.      0.81217     -0.64259E-03 -0.76551E-04  0.42709E-03 
   12787.      0.80962     -0.58149E-03  0.11407E-03 -0.62600E-03 
   12790.      0.80832     -0.22462E-03  0.10025E-03 -0.56247E-03 
   12794.      0.80813      0.54456E-04  0.66312E-04 -0.37261E-03 
   12797.      0.80867      0.14096E-03 -0.14835E-04  0.81958E-04 
   12800.      0.80906      0.15539E-03  0.23541E-04 -0.12982E-03 
   12804.      0.80971      0.26623E-03  0.43297E-04 -0.23783E-03 
   12807.      0.81083      0.32760E-03 -0.61143E-05  0.35279E-04 
   12811.      0.81193      0.43131E-03  0.67155E-04 -0.38748E-03 
   12814.      0.81374      0.38222E-03 -0.98275E-04  0.54194E-03 
   12817.      0.81447      0.23067E-03  0.69218E-05 -0.39102E-04 
   12821.      0.81529      0.22402E-03 -0.10748E-04  0.62217E-04 
   12824.      0.81599      0.30156E-03  0.56811E-04 -0.32324E-03 
   12827.      0.81732      0.23371E-03 -0.97176E-04  0.55128E-03 
   12831.      0.81756      0.50784E-04 -0.11417E-04  0.64983E-04 
   12834.      0.81766      0.53026E-04  0.12664E-04 -0.73010E-04 
   12838.      0.81792      0.76124E-04  0.93758E-06 -0.54297E-05 
   12841.      0.81818      0.17647E-04 -0.35746E-04  0.20190E-03 
   12844.      0.81804      0.33337E-04  0.45278E-04 -0.25353E-03 
   12848.      0.81840      0.23491E-03  0.74908E-04 -0.42257E-03 
   12851.      0.81962      0.45945E-03  0.58391E-04 -0.33394E-03 
   12854.      0.82151      0.62602E-03  0.40322E-04 -0.22821E-03 
   12858.      0.82383      0.62528E-03 -0.40916E-04  0.22986E-03 
   12861.      0.82570      0.39573E-03 -0.95979E-04  0.54001E-03 
   12864.      0.82649      0.32541E-03  0.53495E-04 -0.30725E-03 
   12868.      0.82791      0.33553E-03 -0.47479E-04  0.27319E-03 
   12871.      0.82877      0.71204E-04 -0.10947E-03  0.61717E-03 
   12875.      0.82839     -0.20917E-03 -0.57167E-04  0.32635E-03 
   12878.      0.82735     -0.44638E-03 -0.82769E-04  0.47784E-03 
   12881.      0.82536     -0.72401E-03 -0.80376E-04  0.46703E-03 
   12885.      0.82241     -0.11482E-02 -0.17075E-03  0.96586E-03 
   12888.      0.81767     -0.12541E-02  0.10863E-03 -0.60516E-03 
   12891.      0.81405     -0.10946E-02 -0.12945E-04  0.73507E-04 
   12895.      0.81029     -0.84980E-03  0.15510E-03 -0.91625E-03 
   12898.      0.80825     -0.47012E-03  0.66236E-04 -0.38573E-03 
   12902.      0.80706     -0.23743E-03  0.71623E-04 -0.39961E-03 
   12905.      0.80666     -0.46765E-04  0.42140E-04 -0.23950E-03 
   12908.      0.80675      0.81403E-04  0.33099E-04 -0.19714E-03 
   12912.      0.80723      0.33171E-04 -0.61035E-04  0.36362E-03 
   12915.      0.80699     -0.18966E-03 -0.68988E-04  0.40003E-03 
   12919.      0.80594     -0.35828E-03 -0.30228E-04  0.17310E-03 
   12922.      0.80457     -0.43824E-03 -0.16878E-04  0.98261E-04 
   12926.      0.80294     -0.46222E-03  0.28049E-05 -0.16579E-04 
   12929.      0.80139     -0.45049E-03  0.40887E-05 -0.23348E-04 
   12932.      0.79990     -0.31129E-03  0.78344E-04 -0.44671E-03 
   12936.      0.79929     -0.28773E-03 -0.63952E-04  0.36964E-03 
   12939.      0.79794     -0.31396E-03  0.48240E-04 -0.28212E-03 
   12943.      0.79714     -0.19462E-03  0.21725E-04 -0.12497E-03 
   12946.      0.79661     -0.32441E-04  0.74238E-04 -0.42317E-03 
   12949.      0.79693      0.13169E-03  0.22616E-04 -0.13314E-03 
   12953.      0.79752      0.18368E-03  0.75152E-05 -0.46208E-04 
   12956.      0.79822      0.24238E-03  0.26143E-04 -0.15852E-03 
   12960.      0.79920      0.26501E-03 -0.13415E-04  0.78199E-04 
   12963.      0.80003      0.33067E-03  0.51740E-04 -0.30320E-03 
   12967.      0.80147      0.49156E-03  0.41745E-04 -0.25058E-03 
   12970.      0.80344      0.53096E-03 -0.19185E-04  0.11295E-03 
   12973.      0.80512      0.60791E-03  0.64706E-04 -0.37310E-03 
   12977.      0.80758      0.71694E-03 -0.49294E-06  0.28836E-05 
   12980.      0.81002      0.70184E-03 -0.82613E-05  0.49175E-04 
   12984.      0.81242      0.58692E-03 -0.58315E-04  0.34752E-03 
   12987.      0.81408      0.46667E-03 -0.11450E-04  0.67000E-04 
   12991.      0.81561      0.25405E-03 -0.11178E-03  0.66669E-03 
   12994.      0.81582     -0.20898E-03 -0.15596E-03  0.93482E-03 
   12998.      0.81418     -0.38105E-03  0.38923E-04 -0.44333E-03 
   13004.      0.81230     -0.34959E-03 -0.25106E-04  0.32963E-03 
   13008.      0.81065     -0.32964E-03  0.43094E-04 -0.34651E-03 
   13012.      0.80967     -0.16039E-03  0.40568E-04 -0.33823E-03 
   13016.      0.80935     -0.27513E-03 -0.97111E-04  0.80385E-03 
   13020.      0.80744     -0.52929E-03 -0.28104E-04  0.22782E-03 
   13024.      0.80508     -0.49028E-03  0.47433E-04 -0.38527E-03 
   13028.      0.80349     -0.34928E-03  0.22316E-04 -0.18477E-03 
   13033.      0.80224     -0.49004E-03 -0.92025E-04  0.75308E-03 
   13036.      0.79955     -0.65627E-03  0.99165E-05 -0.80123E-04 
   13041.      0.79697     -0.52062E-03  0.55797E-04 -0.47975E-03 
   13045.      0.79525     -0.24992E-03  0.74931E-04 -0.64061E-03 
   13049.      0.79487      0.14186E-03  0.11672E-03 -0.96076E-03 
   13053.      0.79642      0.55038E-03  0.84779E-04 -0.69558E-03 
   13057.      0.79931      0.65692E-03 -0.31976E-04  0.26562E-03 
   13061.      0.80176      0.49167E-03 -0.48746E-04  0.41088E-03 
   13065.      0.80336      0.23407E-03 -0.77447E-04  0.64082E-03 
   13069.      0.80367     -0.18986E-03 -0.13006E-03  0.10912E-02 
   13073.      0.80179     -0.56001E-03 -0.50545E-04  0.42596E-03 
   13077.      0.79908     -0.91401E-03 -0.12349E-03  0.10142E-02 
   13081.      0.79439     -0.11061E-02  0.28621E-04 -0.23639E-03 
   13086.      0.79009     -0.80453E-03  0.11854E-03 -0.99951E-03 
   13090.      0.78778     -0.40452E-03  0.76417E-04 -0.64197E-03 
   13094.      0.78677     -0.93314E-04  0.75087E-04 -0.63647E-03 
   13098.      0.78702      0.11524E-03  0.26177E-04 -0.22249E-03 
   13102.      0.78772      0.22237E-03  0.25937E-04 -0.21800E-03 
   13106.      0.78885      0.14859E-03 -0.62111E-04  0.51899E-03 
   13110.      0.78894     -0.27789E-04 -0.24205E-04  0.20181E-03 
   13114.      0.78862     -0.58652E-04  0.90420E-05 -0.76164E-04 
   13118.      0.78845     -0.10072E-04  0.14492E-04 -0.12440E-03 
   13123.      0.78854      0.13757E-03  0.57257E-04 -0.48314E-03 
   13127.      0.78957      0.38375E-03  0.63026E-04 -0.52442E-03 
   13131.      0.79168      0.51582E-03  0.17086E-05 -0.14441E-04 
   13135.      0.79381      0.62054E-03  0.49231E-04 -0.41611E-03 
   13139.      0.79678      0.78130E-03  0.28689E-04 -0.24726E-03 
   13143.      0.80031      0.73528E-03 -0.50401E-04  0.44232E-03 
   13147.      0.80294      0.51651E-03 -0.54492E-04  0.47024E-03 
   13151.      0.80460      0.29270E-03 -0.53873E-04  0.45423E-03 
   13156.      0.80535     -0.10117E-03 -0.13843E-03  0.11593E-02 
   13160.      0.80377     -0.38319E-03  0.60856E-06 -0.50788E-05 
   13164.      0.80222     -0.40484E-03 -0.11100E-04  0.94354E-04 
   13168.      0.80043     -0.55193E-03 -0.60250E-04  0.51203E-03 
   13172.      0.79768     -0.59550E-03  0.39033E-04 -0.33307E-03 
   13176.      0.79552     -0.39813E-03  0.56412E-04 -0.48302E-03 
   13180.      0.79437     -0.29630E-03 -0.72374E-05  0.61363E-04 
   13184.      0.79308     -0.33796E-03 -0.12866E-04  0.11130E-03 
   13189.      0.79156     -0.25537E-03  0.52500E-04 -0.45558E-03 
   13193.      0.79095     -0.13979E-03  0.29431E-05 -0.26293E-04 
   13197.      0.79038     -0.73491E-04  0.28482E-04 -0.25335E-03 
   13201.      0.79032     -0.37196E-04 -0.11483E-04  0.98500E-04 
   13205.      0.79007     -0.11603E-03 -0.26331E-04  0.23018E-03 
   13209.      0.78935     -0.26785E-03 -0.45400E-04  0.41250E-03 
   13214.      0.78778     -0.37207E-03 -0.35398E-05  0.31370E-04 
   13218.      0.78622     -0.40378E-03 -0.11684E-04  0.10063E-03 
   13222.      0.78443     -0.23234E-03  0.93193E-04 -0.82176E-03 
   13226.      0.78427      0.56855E-05  0.20147E-04 -0.17799E-03 
   13230.      0.78447     -0.15585E-05 -0.23700E-04  0.20750E-03 
   13235.      0.78426     -0.19479E-04  0.15155E-04 -0.13233E-03 
   13239.      0.78431      0.17740E-04  0.25804E-05 -0.23870E-04 
   13243.      0.78441     -0.21212E-04 -0.20704E-04  0.19115E-03 
   13247.      0.78414     -0.12986E-03 -0.30660E-04  0.26843E-03 
   13252.      0.78332     -0.19276E-03  0.59804E-06 -0.52722E-05 
   13256.      0.78252     -0.25207E-03 -0.28397E-04  0.25834E-03 
   13260.      0.78117     -0.24594E-03  0.31294E-04 -0.28429E-03 
   13264.      0.78041     -0.66760E-04  0.53758E-04 -0.47065E-03 
   13269.      0.78060      0.11043E-03  0.31097E-04 -0.26934E-03 
   13273.      0.78133      0.23619E-03  0.29176E-04 -0.25548E-03 
   13277.      0.78259      0.30380E-03  0.30960E-05 -0.27724E-04 
   13281.      0.78390      0.22234E-03 -0.41899E-04  0.36969E-03 
   13285.      0.78446      0.12084E-03 -0.62690E-05  0.57971E-04 
   13290.      0.78494      0.65152E-04 -0.19434E-04  0.18317E-03 
   13294.      0.78504     -0.19477E-05 -0.11809E-04  0.10500E-03 
   13298.      0.78492      0.39750E-05  0.14646E-04 -0.12973E-03 
   13302.      0.78507      0.12484E-03  0.41769E-04 -0.38805E-03 
   13307.      0.78602      0.25282E-03  0.17628E-04 -0.16319E-03 
   13311.      0.78724      0.28408E-03 -0.31625E-05  0.28133E-04 
   13315.      0.78841      0.26834E-03 -0.42476E-05  0.38792E-04 
   13320.      0.78953      0.15928E-03 -0.46360E-04  0.43119E-03 
   13324.      0.78979      0.84079E-04  0.11502E-04 -0.10669E-03 
   13328.      0.79026      0.39534E-05 -0.49450E-04  0.44492E-03 
   13332.      0.78983     -0.10888E-03 -0.36911E-05  0.34128E-04 
   13337.      0.78932     -0.28385E-03 -0.77213E-04  0.72229E-03 
   13341.      0.78741     -0.44549E-03  0.25448E-05 -0.22826E-04 
   13345.      0.78554     -0.41330E-03  0.12626E-04 -0.11384E-03 
   13350.      0.78390     -0.31276E-03  0.34034E-04 -0.31937E-03 
   13354.      0.78285     -0.16283E-03  0.35131E-04 -0.33037E-03 
   13358.      0.78248     -0.47312E-04  0.18468E-04 -0.16750E-03 
   13362.      0.78244      0.71675E-05  0.70484E-05 -0.65127E-04 
   13367.      0.78254     -0.38926E-04 -0.28278E-04  0.26528E-03 
   13371.      0.78211     -0.17801E-03 -0.36390E-04  0.33296E-03 
   13375.      0.78102     -0.33336E-03 -0.36295E-04  0.33108E-03 
   13380.      0.77925     -0.29433E-03  0.53955E-04 -0.50357E-03 
   13384.      0.77848     -0.16890E-03  0.41350E-05 -0.38038E-04 
   13388.      0.77780     -0.20770E-03 -0.22286E-04  0.20393E-03 
   13393.      0.77670     -0.17570E-03  0.37241E-04 -0.34092E-03 
   13397.      0.77629     -0.10146E-03 -0.25475E-05  0.23262E-04 
   13401.      0.77584     -0.75209E-04  0.14767E-04 -0.13608E-03 
   13405.      0.77565     -0.43399E-05  0.18255E-04 -0.16810E-03 
   13410.      0.77580      0.25021E-04 -0.45695E-05  0.42127E-04 
   13414.      0.77586     -0.23481E-05 -0.80413E-05  0.76655E-04 
   13418.      0.77578      0.55034E-05  0.11712E-04 -0.11019E-03 
   13423.      0.77591     -0.50795E-05 -0.16846E-04  0.15379E-03 
   13427.      0.77573      0.10762E-04  0.23851E-04 -0.22528E-03 
   13431.      0.77600      0.81240E-04  0.85260E-05 -0.81540E-04 
   13436.      0.77644     -0.20986E-04 -0.55791E-04  0.52371E-03 
   13440.      0.77583     -0.11077E-03  0.14493E-04 -0.13337E-03 
   13444.      0.77549     -0.84126E-04 -0.20268E-05  0.19491E-04 
   13449.      0.77509     -0.25194E-04  0.28704E-04 -0.27978E-03 
   13453.      0.77526      0.57297E-04  0.88489E-05 -0.82570E-04 
   13457.      0.77558      0.12956E-03  0.24671E-04 -0.22904E-03 
   13462.      0.77637      0.17847E-03 -0.19399E-05  0.18557E-04 
   13466.      0.77715      0.10385E-03 -0.32032E-04  0.30926E-03 
   13471.      0.77729      0.10347E-03  0.32392E-04 -0.30259E-03 
   13475.      0.77804      0.18385E-03  0.47916E-05 -0.44885E-04 
   13479.      0.77888      0.11717E-03 -0.35497E-04  0.33453E-03 
   13483.      0.77906      0.25316E-04 -0.68226E-05  0.64164E-04 
   13488.      0.77910     -0.55947E-04 -0.30585E-04  0.28890E-03 
   13492.      0.77857     -0.15965E-03 -0.16584E-04  0.16705E-03 
   13497.      0.77766     -0.14404E-03  0.15331E-04 -0.32551E-03 
   13506.      0.77682     -0.45276E-05  0.22685E-04 -0.63653E-03 
   13512.      0.77733      0.37152E-04 -0.14849E-04  0.27256E-03 
   13518.      0.77728      0.11884E-04  0.65981E-05 -0.11788E-03 
   13524.      0.77747     -0.79613E-05 -0.13039E-04  0.24006E-03 
   13530.      0.77718     -0.65113E-04 -0.57556E-05  0.10746E-03 
   13536.      0.77667     -0.85482E-04 -0.92048E-06  0.16818E-04 
   13542.      0.77614     -0.87676E-04  0.19233E-06 -0.35947E-05 
   13549.      0.77560     -0.16564E-03 -0.25619E-04  0.48168E-03 
   13555.      0.77412     -0.14886E-03  0.31136E-04 -0.58371E-03 
   13561.      0.77379     -0.10483E-03 -0.16801E-04  0.31316E-03 
   13567.      0.77285     -0.16386E-03 -0.25496E-05  0.46991E-04 
   13573.      0.77180     -0.13573E-03  0.11621E-04 -0.22143E-03 
   13579.      0.77118     -0.17708E-03 -0.25046E-04  0.47613E-03 
   13585.      0.76963     -0.22788E-03  0.87035E-05 -0.16042E-03 
   13591.      0.76841     -0.14830E-03  0.17286E-04 -0.32686E-03 
   13598.      0.76781     -0.17186E-03 -0.24679E-04  0.47693E-03 
   13604.      0.76628     -0.12059E-03  0.41461E-04 -0.79009E-03 
   13610.      0.76632     -0.20631E-05 -0.30911E-05  0.57798E-04 
   13616.      0.76625      0.14062E-04  0.84246E-05 -0.15530E-03 
   13622.      0.76649      0.10352E-03  0.20561E-04 -0.39671E-03 
   13628.      0.76756      0.23824E-03  0.22666E-04 -0.44274E-03 
   13635.      0.76946      0.29590E-03 -0.42775E-05  0.81183E-04 
   13641.      0.77120      0.27945E-03 -0.10542E-05  0.20317E-04 
   13647.      0.77293      0.24223E-03 -0.10963E-04  0.21032E-03 
   13653.      0.77421      0.16935E-03 -0.12618E-04  0.24009E-03 
   13659.      0.77501     -0.29622E-04 -0.52025E-04  0.98476E-03 
   13665.      0.77386     -0.23016E-03 -0.13239E-04  0.24760E-03 
   13672.      0.77220     -0.20420E-03  0.21256E-04 -0.41530E-03 
   13678.      0.77132     -0.16560E-03 -0.88947E-05  0.17444E-03 
   13684.      0.77013     -0.10155E-03  0.29592E-04 -0.57090E-03 
   13690.      0.77007      0.14334E-04  0.76678E-05 -0.14983E-03 
   13697.      0.77031      0.47272E-04 -0.26207E-08   0.0000     
