# Sample Au300K                                  
# R window limits:    1.200        3.500    
# Weight:         2
# R shell:        1.970
# K points:       435
# 
#   K        k*chi(k)      k^n*chi(k)    Amplitude    Amp*R^2,     Phase         Phase+2kr
   3.51598 -0.319604E-01 -0.112372      0.668214       2.5933      -13.901     -0.47848E-01 
   3.55322  0.658368E-01  0.233933      0.527218       2.0461      -13.874      0.12520     
   3.59073  0.128769      0.462375      0.434263       1.6853      -13.846      0.30105     
   3.62666  0.168683      0.611755      0.372000       1.4437      -13.818      0.47063     
   3.66238  0.194978      0.714084      0.326433       1.2669      -13.790      0.64013     
   3.69821  0.211452      0.781994      0.291687       1.1320      -13.760      0.81093     
   3.73493  0.220257      0.822646      0.264048       1.0247      -13.729      0.98660     
   3.77077  0.222377      0.838532      0.242705      0.94191      -13.698       1.1586     
   3.80776  0.218884      0.833456      0.225029      0.87331      -13.666       1.3366     
   3.84125  0.211403      0.812051      0.211964      0.82261      -13.636       1.4980     
   3.87570  0.199951      0.774951      0.200832      0.77941      -13.606       1.6645     
   3.90978  0.185321      0.724564      0.191695      0.74395      -13.575       1.8294     
   3.94270  0.168457      0.664177      0.184338      0.71540      -13.545       1.9889     
   3.97684  0.148523      0.590654      0.177997      0.69079      -13.514       2.1545     
   4.00918  0.127688      0.511922      0.173031      0.67152      -13.485       2.3116     
   4.04226  0.104758      0.423461      0.168868      0.65536      -13.454       2.4724     
   4.07589  0.801547E-01  0.326701      0.165485      0.64223      -13.423       2.6360     
   4.10869  0.552466E-01  0.226991      0.162929      0.63231      -13.393       2.7956     
   4.14117  0.300607E-01  0.124486      0.161066      0.62508      -13.362       2.9539     
   4.17460  0.397285E-02  0.165851E-01  0.159801      0.62017      -13.331       3.1167     
   4.20669 -0.208886E-01 -0.878721E-01  0.159179      0.61776      -13.301       3.2732     
   4.23864 -0.451034E-01 -0.191177      0.159123      0.61754      -13.271       3.4290     
   4.27026 -0.682152E-01 -0.291296      0.159615      0.61945      -13.242       3.5832     
   4.30243 -0.905309E-01 -0.389503      0.160677      0.62357      -13.211       3.7401     
   4.33361 -0.110593     -0.479269      0.162137      0.62924      -13.182       3.8922     
   4.36361 -0.127685     -0.557168      0.163402      0.63415      -13.154       4.0385     
   4.39468 -0.142563     -0.626518      0.164496      0.63839      -13.125       4.1901     
   4.42409 -0.153597     -0.679529      0.165327      0.64162      -13.097       4.3334     
   4.45424 -0.161528     -0.719487      0.165975      0.64413      -13.069       4.4804     
   4.48343 -0.165735     -0.743060      0.166405      0.64580      -13.042       4.6226     
   4.51281 -0.166407     -0.750964      0.166644      0.64673      -13.015       4.7657     
   4.54188 -0.163539     -0.742773      0.166690      0.64691      -12.988       4.9072     
   4.57094 -0.157232     -0.718698      0.166550      0.64636      -12.961       5.0485     
   4.60007 -0.147621     -0.679066      0.166225      0.64510      -12.934       5.1900     
   4.62845 -0.135325     -0.626345      0.165733      0.64319      -12.908       5.3278     
   4.65669 -0.120517     -0.561210      0.165075      0.64064      -12.883       5.4648     
   4.68529 -0.103262     -0.483811      0.164242      0.63741      -12.857       5.6033     
   4.71344 -0.844623E-01 -0.398108      0.163262      0.63360      -12.832       5.7394     
   4.74137 -0.644594E-01 -0.305626      0.162137      0.62924      -12.807       5.8743     
   4.76918 -0.436397E-01 -0.208126      0.160869      0.62432      -12.782       6.0085     
   4.79697 -0.223996E-01 -0.107450      0.159460      0.61885      -12.758       6.1422     
   4.82455 -0.133510E-02 -0.644127E-02  0.157926      0.61290      -12.734       6.2747     
   4.85189  0.191121E-01  0.927297E-01  0.156278      0.60650      -12.711       6.4058     
   4.87997  0.392385E-01  0.191483      0.154459      0.59944      -12.687       6.5400     
   4.90767  0.578487E-01  0.283902      0.152544      0.59201      -12.664       6.6721     
   4.93457  0.744142E-01  0.367202      0.150576      0.58437      -12.642       6.8001     
   4.96123  0.890891E-01  0.441991      0.148527      0.57642      -12.621       6.9265     
   4.98798  0.101862      0.508085      0.146377      0.56807      -12.600       7.0528     
   5.01670  0.113210      0.567939      0.143971      0.55874      -12.578       7.1880     
   5.04248  0.121192      0.611106      0.141733      0.55005      -12.558       7.3089     
   5.06800  0.126986      0.643566      0.139450      0.54119      -12.540       7.4280     
   5.09478  0.130805      0.666425      0.136988      0.53164      -12.521       7.5524     
   5.12075  0.132333      0.677644      0.134544      0.52215      -12.503       7.6724     
   5.14659  0.131803      0.678337      0.132063      0.51252      -12.486       7.7912     
   5.17228  0.129363      0.669100      0.129556      0.50279      -12.470       7.9086     
   5.19752  0.125246      0.650968      0.127060      0.49311      -12.455       8.0232     
   5.22321  0.119471      0.624021      0.124493      0.48315      -12.440       8.1390     
   5.24845  0.112423      0.590045      0.121954      0.47329      -12.427       8.2520     
   5.29864  0.951363E-01  0.504093      0.116881      0.45360      -12.403       8.4738     
   5.34738  0.754524E-01  0.403472      0.111978      0.43458      -12.383       8.6854     
   5.39764  0.536988E-01  0.289847      0.107014      0.41531      -12.368       8.8991     
   5.44501  0.331122E-01  0.180297      0.102489      0.39775      -12.358       9.0958     
   5.49296  0.132063E-01  0.725418E-01  0.981319E-01  0.38084      -12.352       9.2898     
   5.54036 -0.484512E-02 -0.268438E-01  0.941154E-01  0.36525      -12.353       9.4763     
   5.58746 -0.207458E-01 -0.115916      0.904875E-01  0.35117      -12.359       9.6561     
   5.63475 -0.345055E-01 -0.194430      0.872841E-01  0.33874      -12.370       9.8312     
   5.68174 -0.460363E-01 -0.261566      0.846096E-01  0.32836      -12.386       10.000     
   5.72738 -0.553733E-01 -0.317144      0.825598E-01  0.32041      -12.406       10.160     
   5.77286 -0.630901E-01 -0.364210      0.811051E-01  0.31476      -12.429       10.316     
   5.81842 -0.694600E-01 -0.404148      0.802725E-01  0.31153      -12.454       10.471     
   5.86367 -0.746032E-01 -0.437448      0.800822E-01  0.31079      -12.479       10.624     
   5.90812 -0.785597E-01 -0.464140      0.805119E-01  0.31246      -12.503       10.775     
   5.95236 -0.813412E-01 -0.484172      0.815274E-01  0.31640      -12.524       10.928     
   5.99579 -0.827541E-01 -0.496176      0.830624E-01  0.32236      -12.542       11.082     
   6.03931 -0.825585E-01 -0.498597      0.850924E-01  0.33024      -12.555       11.240     
   6.08369 -0.803089E-01 -0.488575      0.876170E-01  0.34003      -12.563       11.407     
   6.12619 -0.758217E-01 -0.464498      0.904125E-01  0.35088      -12.566       11.572     
   6.17016 -0.683977E-01 -0.422025      0.936398E-01  0.36341      -12.563       11.747     
   6.21382 -0.579365E-01 -0.360007      0.971287E-01  0.37695      -12.555       11.927     
   6.25627 -0.446734E-01 -0.279489      0.100746      0.39099      -12.543       12.107     
   6.29850 -0.285039E-01 -0.179532      0.104523      0.40564      -12.526       12.290     
   6.33993 -0.100036E-01 -0.634223E-01  0.108366      0.42056      -12.505       12.474     
   6.38193  0.109488E-01  0.698743E-01  0.112368      0.43609      -12.481       12.664     
   6.42386  0.333791E-01  0.214423      0.116443      0.45190      -12.453       12.857     
   6.46609  0.565854E-01  0.365887      0.120599      0.46803      -12.422       13.055     
   6.50698  0.786209E-01  0.511584      0.124652      0.48376      -12.389       13.249     
   6.54783  0.991079E-01  0.648941      0.128712      0.49952      -12.353       13.445     
   6.58869  0.116931      0.770425      0.132766      0.51525      -12.316       13.644     
   6.62927  0.130897      0.867749      0.136771      0.53080      -12.276       13.843     
   6.66967  0.140103      0.934438      0.140725      0.54614      -12.235       14.043     
   6.70957  0.143789      0.964761      0.144586      0.56112      -12.193       14.242     
   6.74867  0.141623      0.955766      0.148318      0.57561      -12.151       14.439     
   6.78758  0.133482      0.906021      0.151972      0.58979      -12.107       14.636     
   6.82675  0.119228      0.813937      0.155582      0.60380      -12.063       14.835     
   6.86593  0.991582E-01  0.680814      0.159118      0.61752      -12.017       15.035     
   6.90478  0.740868E-01  0.511552      0.162543      0.63081      -11.970       15.235     
   6.94361  0.447161E-01  0.310491      0.165881      0.64377      -11.923       15.435     
   6.98268  0.119354E-01  0.833413E-01  0.169148      0.65645      -11.874       15.637     
   7.02143 -0.224728E-01 -0.157791      0.172293      0.66865      -11.826       15.839     
   7.05901 -0.562452E-01 -0.397036      0.175247      0.68011      -11.778       16.035     
   7.09694 -0.892948E-01 -0.633720      0.178130      0.69130      -11.729       16.233     
   7.13396 -0.119132     -0.849883      0.180844      0.70184      -11.681       16.427     
   7.17148 -0.145583      -1.04404      0.183493      0.71212      -11.631       16.624     
   7.20900 -0.166967      -1.20367      0.186036      0.72199      -11.581       16.822     
   7.24633 -0.182143      -1.31987      0.188460      0.73139      -11.531       17.019     
   7.28466 -0.190526      -1.38792      0.190834      0.74061      -11.480       17.222     
   7.32208 -0.191111      -1.39933      0.193041      0.74917      -11.429       17.420     
   7.35959 -0.183923      -1.35360      0.195140      0.75732      -11.377       17.619     
   7.39660 -0.169297      -1.25222      0.197100      0.76493      -11.326       17.816     
   7.43249 -0.148365      -1.10272      0.198895      0.77189      -11.276       18.008     
   7.46784 -0.121906     -0.910375      0.200559      0.77835      -11.227       18.196     
   7.50401 -0.897628E-01 -0.673580      0.202156      0.78455      -11.176       18.389     
   7.53965 -0.541909E-01 -0.408581      0.203626      0.79025      -11.126       18.580     
   7.57488 -0.165061E-01 -0.125032      0.204977      0.79549      -11.076       18.769     
   7.61018  0.223755E-01  0.170282      0.206229      0.80036      -11.026       18.958     
   7.64419  0.595674E-01  0.455345      0.207342      0.80467      -10.977       19.141     
   7.67985  0.968179E-01  0.743547      0.208409      0.80881      -10.926       19.333     
   7.71422  0.129697       1.00051      0.209343      0.81244      -10.876       19.518     
   7.74891  0.158622       1.22915      0.210192      0.81573      -10.826       19.705     
   7.78283  0.181706       1.41419      0.210933      0.81861      -10.777       19.888     
   7.81700  0.198897       1.55478      0.211591      0.82116      -10.727       20.072     
   7.85137  0.209377       1.64390      0.212166      0.82340      -10.676       20.258     
   7.88496  0.212605       1.67638      0.212646      0.82526      -10.627       20.440     
   7.91939  0.208550       1.65159      0.213053      0.82684      -10.576       20.626     
   7.95358  0.197239       1.56876      0.213377      0.82810      -10.525       20.812     
   7.98819  0.178773       1.42807      0.213624      0.82905      -10.474       21.000     
   8.02179  0.154681       1.24082      0.213789      0.82969      -10.424       21.182     
   8.05534  0.125386       1.01002      0.213882      0.83005      -10.373       21.365     
   8.08818  0.925778E-01  0.748786      0.213905      0.83014      -10.324       21.544     
   8.12281  0.547412E-01  0.444652      0.213860      0.82997      -10.272       21.732     
   8.15628  0.162815E-01  0.132796      0.213750      0.82954      -10.221       21.915     
   8.18963 -0.225716E-01 -0.184853      0.213579      0.82888      -10.170       22.097     
   8.22291 -0.605567E-01 -0.497952      0.213349      0.82799      -10.119       22.279     
   8.25594 -0.962180E-01 -0.794370      0.213065      0.82689      -10.069       22.460     
   8.28889 -0.128574      -1.06573      0.212729      0.82558      -10.018       22.640     
   8.32202 -0.156789      -1.30480      0.212340      0.82407      -9.9669       22.822     
   8.35439 -0.179267      -1.49767      0.211912      0.82241      -9.9168       22.999     
   8.38689 -0.196048      -1.64423      0.211439      0.82057      -9.8663       23.178     
   8.41962 -0.206550      -1.73907      0.210920      0.81856      -9.8153       23.358     
   8.45202 -0.210298      -1.77745      0.210367      0.81641      -9.7646       23.536     
   8.48443 -0.207327      -1.75905      0.209777      0.81412      -9.7137       23.715     
   8.51711 -0.197642      -1.68334      0.209147      0.81168      -9.6622       23.895     
   8.54911 -0.181973      -1.55571      0.208498      0.80916      -9.6116       24.072     
   8.58047 -0.161179      -1.38300      0.207835      0.80659      -9.5619       24.245     
   8.61220 -0.135340      -1.16557      0.207138      0.80388      -9.5114       24.421     
   8.64310 -0.106294     -0.918706      0.206435      0.80115      -9.4620       24.592     
   8.67469 -0.735802E-01 -0.638285      0.205696      0.79829      -9.4113       24.767     
   8.70622 -0.388792E-01 -0.338491      0.204939      0.79535      -9.3606       24.942     
   8.73768 -0.329138E-02 -0.287590E-01  0.204167      0.79235      -9.3098       25.117     
   8.76899  0.320026E-01  0.280631      0.203383      0.78931      -9.2591       25.291     
   8.80023  0.660039E-01  0.580850      0.202588      0.78622      -9.2083       25.465     
   8.83136  0.976743E-01  0.862596      0.201786      0.78311      -9.1575       25.638     
   8.86239  0.126114       1.11767      0.200978      0.77997      -9.1067       25.811     
   8.89322  0.150446       1.33795      0.200168      0.77683      -9.0561       25.983     
   8.92327  0.169723       1.51449      0.199374      0.77375      -9.0065       26.151     
   8.95365  0.184223       1.64946      0.198569      0.77063      -8.9563       26.321     
   8.98399  0.193314       1.73673      0.197764      0.76750      -8.9059       26.491     
   9.01390  0.196773       1.77369      0.196972      0.76443      -8.8561       26.659     
   9.04373  0.194715       1.76095      0.196183      0.76137      -8.8063       26.826     
   9.07403  0.187081       1.69758      0.195386      0.75827      -8.7555       26.996     
   9.10367  0.174447       1.58811      0.194612      0.75527      -8.7057       27.163     
   9.13365  0.156862       1.43272      0.193836      0.75226      -8.6551       27.331     
   9.16376  0.134856       1.23579      0.193064      0.74926      -8.6042       27.501     
   9.19388  0.109134       1.00337      0.192303      0.74631      -8.5530       27.671     
   9.22373  0.807285E-01  0.744618      0.191559      0.74342      -8.5022       27.839     
   9.27782  0.245507E-01  0.227777      0.190243      0.73831      -8.4097       28.145     
   9.32107 -0.217732E-01 -0.202950      0.189225      0.73436      -8.3354       28.390     
   9.36310 -0.651625E-01 -0.610124      0.188268      0.73065      -8.2629       28.628     
   9.40529 -0.104655     -0.984310      0.187342      0.72706      -8.1898       28.867     
   9.44743 -0.137847      -1.30230      0.186455      0.72361      -8.1165       29.106     
   9.49115 -0.163724      -1.55393      0.185578      0.72021      -8.0402       29.355     
   9.53301 -0.178945      -1.70588      0.184780      0.71711      -7.9669       29.593     
   9.57473 -0.184010      -1.76184      0.184029      0.71420      -7.8936       29.831     
   9.61623 -0.178813      -1.71951      0.183326      0.71147      -7.8205       30.067     
   9.65846 -0.163399      -1.57818      0.182658      0.70888      -7.7459       30.308     
   9.69965 -0.139404      -1.35217      0.182053      0.70653      -7.6729       30.544     
   9.74070 -0.108023      -1.05222      0.181496      0.70437      -7.5999       30.778     
   9.78152 -0.711474E-01 -0.695930      0.180990      0.70240      -7.5273       31.012     
   9.82224 -0.306989E-01 -0.301532      0.180531      0.70062      -7.4546       31.245     
   9.86308  0.113435E-01  0.111882      0.180118      0.69902      -7.3816       31.479     
   9.90405  0.527460E-01  0.522399      0.179750      0.69759      -7.3082       31.714     
   9.94442  0.905973E-01  0.900938      0.179434      0.69636      -7.2358       31.945     
   9.98467  0.123443       1.23254      0.179162      0.69531      -7.1636       32.176     
  10.02621  0.150412       1.50807      0.178928      0.69440      -7.0889       32.414     
  10.06528  0.168029       1.69126      0.178750      0.69371      -7.0186       32.639     
  10.10430  0.177239       1.79087      0.178611      0.69317      -6.9483       32.863     
  10.14390  0.177557       1.80112      0.178510      0.69278      -6.8769       33.090     
  10.18444  0.168456       1.71563      0.178446      0.69253      -6.8038       33.323     
  10.22356  0.151081       1.54458      0.178422      0.69244      -6.7332       33.548     
  10.26283  0.126029       1.29342      0.178434      0.69248      -6.6623       33.773     
  10.30184  0.948209E-01  0.976830      0.178480      0.69266      -6.5918       33.997     
  10.34079  0.589272E-01  0.609354      0.178559      0.69297      -6.5215       34.221     
  10.38008  0.197098E-01  0.204589      0.178672      0.69341      -6.4505       34.447     
  10.41831 -0.194850E-01 -0.203001      0.178812      0.69395      -6.3814       34.667     
  10.45773 -0.589600E-01 -0.616587      0.178987      0.69463      -6.3102       34.893     
  10.49622 -0.947046E-01 -0.994040      0.179187      0.69541      -6.2407       35.114     
  10.53565 -0.126623      -1.33405      0.179421      0.69631      -6.1695       35.341     
  10.57355 -0.151306      -1.59984      0.179673      0.69729      -6.1010       35.559     
  10.61163 -0.168993      -1.79329      0.179952      0.69838      -6.0323       35.778     
  10.65003 -0.178735      -1.90353      0.180260      0.69957      -5.9630       35.998     
  10.68863 -0.179839      -1.92223      0.180595      0.70087      -5.8933       36.220     
  10.72652 -0.172370      -1.84893      0.180949      0.70225      -5.8250       36.437     
  10.76427 -0.156820      -1.68805      0.181327      0.70371      -5.7570       36.654     
  10.80119 -0.134445      -1.45217      0.181719      0.70523      -5.6904       36.866     
  10.83868 -0.105482      -1.14328      0.182141      0.70687      -5.6229       37.081     
  10.87645 -0.712539E-01 -0.774989      0.182590      0.70861      -5.5550       37.298     
  10.91310 -0.346776E-01 -0.378440      0.183049      0.71039      -5.4891       37.509     
  10.95019  0.405490E-02  0.444019E-01  0.183536      0.71228      -5.4225       37.721     
  10.98717  0.426987E-01  0.469137      0.184044      0.71426      -5.3562       37.933     
  11.02424  0.797214E-01  0.878868      0.184577      0.71632      -5.2898       38.146     
  11.06079  0.112925       1.24903      0.185124      0.71845      -5.2244       38.355     
  11.09750  0.141484       1.57012      0.185696      0.72067      -5.1588       38.565     
  11.13404  0.163893       1.82478      0.186287      0.72296      -5.0936       38.775     
  11.17141  0.179552       2.00585      0.186914      0.72539      -5.0270       38.988     
  11.20767  0.187026       2.09613      0.187543      0.72784      -4.9626       39.196     
  11.24379  0.186550       2.09753      0.188190      0.73035      -4.8985       39.402     
  11.27938  0.178329       2.01144      0.188847      0.73290      -4.8355       39.605     
  11.31541  0.162472       1.83844      0.189531      0.73555      -4.7719       39.811     
  11.35137  0.139712       1.58592      0.190231      0.73827      -4.7085       40.016     
  11.38745  0.110839       1.26217      0.190951      0.74106      -4.6451       40.221     
  11.42302  0.776095E-01  0.886535      0.191677      0.74388      -4.5829       40.424     
  11.45876  0.407952E-01  0.467463      0.192420      0.74676      -4.5204       40.627     
  11.49581  0.603498E-03  0.693770E-02  0.193205      0.74981      -4.4559       40.838     
  11.53166 -0.385927E-01 -0.445038      0.193977      0.75281      -4.3937       41.041     
  11.56735 -0.763081E-01 -0.882682      0.194756      0.75583      -4.3320       41.243     
  11.60216 -0.110355      -1.28036      0.195524      0.75881      -4.2721       41.440     
  11.63831 -0.141408      -1.64575      0.196328      0.76193      -4.2100       41.645     
  11.67358 -0.166236      -1.94057      0.197118      0.76500      -4.1497       41.844     
  11.70838 -0.184437      -2.15946      0.197901      0.76803      -4.0905       42.041     
  11.74336 -0.195695      -2.29811      0.198689      0.77109      -4.0312       42.238     
  11.77856 -0.199421      -2.34890      0.199481      0.77416      -3.9717       42.436     
  11.81356 -0.195390      -2.30825      0.200265      0.77721      -3.9128       42.633     
  11.84852 -0.183783      -2.17756      0.201044      0.78023      -3.8543       42.829     
  11.88286 -0.165410      -1.96555      0.201802      0.78317      -3.7970       43.021     
  11.91765 -0.140424      -1.67352      0.202561      0.78612      -3.7392       43.216     
  11.95337 -0.109067      -1.30372      0.203330      0.78910      -3.6802       43.416     
  11.98731 -0.750362E-01 -0.899483      0.204047      0.79189      -3.6243       43.606     
  12.02180 -0.374961E-01 -0.450771      0.204762      0.79466      -3.5678       43.798     
  12.05663  0.203232E-02  0.245029E-01  0.205467      0.79740      -3.5109       43.992     
  12.09154  0.417984E-01  0.505407      0.206156      0.80007      -3.4542       44.186     
  12.12559  0.792826E-01  0.961349      0.206808      0.80260      -3.3991       44.376     
  12.15959  0.114061       1.38693      0.207439      0.80505      -3.3443       44.564     
  12.19354  0.144893       1.76676      0.208047      0.80741      -3.2898       44.753     
  12.22738  0.170654       2.08666      0.208631      0.80967      -3.2357       44.940     
  12.26141  0.190613       2.33718      0.209193      0.81186      -3.1815       45.128     
  12.29481  0.203706       2.50453      0.209720      0.81390      -3.1285       45.313     
  12.32911  0.209966       2.58869      0.210236      0.81590      -3.0743       45.502     
  12.36267  0.208813       2.58149      0.210714      0.81776      -3.0214       45.688     
  12.39761  0.199999       2.47951      0.211184      0.81958      -2.9666       45.880     
  12.43089  0.184668       2.29558      0.211605      0.82122      -2.9145       46.063     
  12.46433  0.162964       2.03124      0.212000      0.82275      -2.8624       46.247     
  12.49794  0.135527       1.69381      0.212372      0.82419      -2.8101       46.432     
  12.53147  0.103470       1.29664      0.212715      0.82553      -2.7581       46.616     
  12.56458  0.682953E-01  0.858102      0.213028      0.82674      -2.7069       46.798     
  12.59772  0.307589E-01  0.387491      0.213316      0.82786      -2.6558       46.979     
  12.63042 -0.735008E-02 -0.928345E-01  0.213576      0.82887      -2.6055       47.158     
  12.66318 -0.453563E-01 -0.574355      0.213813      0.82979      -2.5553       47.338     
  12.69580 -0.818119E-01  -1.03867      0.214026      0.83061      -2.5053       47.516     
  12.72833 -0.115615      -1.47159      0.214217      0.83136      -2.4556       47.694     
  12.76103 -0.145948      -1.86245      0.214389      0.83202      -2.4058       47.873     
  12.79371 -0.171634      -2.19583      0.214541      0.83261      -2.3560       48.051     
  12.82768 -0.192549      -2.46996      0.214679      0.83315      -2.3044       48.237     
  12.86018 -0.206387      -2.65418      0.214794      0.83359      -2.2551       48.414     
  12.89257 -0.213732      -2.75555      0.214894      0.83398      -2.2061       48.591     
  12.92523 -0.214391      -2.77105      0.214980      0.83432      -2.1567       48.769     
  12.95794 -0.208243      -2.69841      0.215053      0.83460      -2.1073       48.947     
  12.99026 -0.195676      -2.54188      0.215115      0.83484      -2.0585       49.123     
  13.02244 -0.177135      -2.30673      0.215167      0.83504      -2.0100       49.298     
  13.05446 -0.153297      -2.00121      0.215212      0.83521      -1.9619       49.473     
  13.08731 -0.124010      -1.62296      0.215250      0.83536      -1.9125       49.652     
  13.11986 -0.910758E-01  -1.19490      0.215284      0.83549      -1.8636       49.829     
  13.15122 -0.566435E-01 -0.744932      0.215313      0.83561      -1.8165       49.999     
  13.18315 -0.198991E-01 -0.262332      0.215340      0.83571      -1.7687       50.173     
  13.21493  0.172613E-01  0.228107      0.215367      0.83582      -1.7211       50.346     
  13.24739  0.546862E-01  0.724450      0.215395      0.83593      -1.6725       50.522     
  13.27905  0.895625E-01   1.18930      0.215424      0.83604      -1.6252       50.694     
  13.31136  0.122419       1.62956      0.215457      0.83617      -1.5770       50.870     
  13.34282  0.150813       2.01227      0.215492      0.83630      -1.5300       51.041     
  13.37439  0.174898       2.33916      0.215533      0.83646      -1.4830       51.212     
  13.40592  0.193840       2.59860      0.215580      0.83664      -1.4360       51.383     
  13.43745  0.207128       2.78327      0.215632      0.83685      -1.3891       51.554     
  13.46867  0.214332       2.88677      0.215692      0.83708      -1.3426       51.724     
  13.50003  0.215398       2.90788      0.215759      0.83734      -1.2961       51.894     
  13.53183  0.210137       2.84354      0.215834      0.83763      -1.2489       52.067     
  13.56316  0.198855       2.69711      0.215917      0.83795      -1.2024       52.236     
  13.59417  0.182055       2.47488      0.216007      0.83830      -1.1564       52.405     
  13.62527  0.160038       2.18056      0.216105      0.83868      -1.1104       52.573     
  13.65694  0.132954       1.81574      0.216212      0.83910      -1.0636       52.745     
  13.68790  0.102674       1.40539      0.216325      0.83954      -1.0178       52.913     
  13.71881  0.695568E-01  0.954236      0.216445      0.84000     -0.97219       53.080     
  13.74934  0.348900E-01  0.479715      0.216570      0.84049     -0.92715       53.245     
  13.78046 -0.144079E-02 -0.198547E-01  0.216704      0.84101     -0.88129       53.414     
  13.81170 -0.379065E-01 -0.523554      0.216844      0.84155     -0.83530       53.583     
  13.84243 -0.727703E-01  -1.00732      0.216986      0.84210     -0.79010       53.749     
  13.87301 -0.105508      -1.46371      0.217131      0.84266     -0.74515       53.914     
  13.90371 -0.135524      -1.88428      0.217279      0.84324     -0.70005       54.081     
  13.93480 -0.162139      -2.25938      0.217431      0.84383     -0.65443       54.249     
  13.96483 -0.183547      -2.56321      0.217578      0.84440     -0.61040       54.411     
  13.99531 -0.200366      -2.80419      0.217727      0.84498     -0.56571       54.576     
  14.02578 -0.211766      -2.97018      0.217875      0.84555     -0.52108       54.741     
  14.05669 -0.217483      -3.05708      0.218022      0.84612     -0.47582       54.908     
  14.08706 -0.217203      -3.05975      0.218162      0.84666     -0.43137       55.072     
  14.11768 -0.211005      -2.97890      0.218298      0.84719     -0.38657       55.237     
  14.14808 -0.199133      -2.81735      0.218426      0.84769     -0.34209       55.401     
  14.17915 -0.181436      -2.57261      0.218549      0.84817     -0.29663       55.569     
  14.20904 -0.159565      -2.26726      0.218658      0.84859     -0.25290       55.731     
  14.23904 -0.133404      -1.89954      0.218757      0.84898     -0.20900       55.893     
  14.26936 -0.103385      -1.47523      0.218846      0.84932     -0.16463       56.057     
  14.29943 -0.708406E-01  -1.01298      0.218922      0.84961     -0.12060       56.219     
  14.32933 -0.365901E-01 -0.524311      0.218984      0.84985     -0.76778E-01   56.381     
  14.35874 -0.195202E-02 -0.280285E-01  0.219031      0.85004     -0.33662E-01   56.540     
  14.38874  0.334654E-01  0.481525      0.219063      0.85016      0.10381E-01   56.702     
  14.41836  0.675786E-01  0.974372      0.219079      0.85022      0.53896E-01   56.862     
  14.44930  0.101358       1.46455      0.219077      0.85022      0.99406E-01   57.030     
  14.47904  0.131166       1.89916      0.219058      0.85014      0.14321       57.191     
  14.50922  0.157934       2.29150      0.219019      0.84999      0.18773       57.354     
  14.53961  0.180623       2.62619      0.218961      0.84976      0.23264       57.519     
  14.57044  0.198620       2.89398      0.218881      0.84945      0.27828       57.686     
  14.59988  0.210624       3.07508      0.218785      0.84908      0.32195       57.845     
  14.62955  0.217275       3.17864      0.218669      0.84863      0.36607       58.007     
  14.65938  0.218269       3.19969      0.218532      0.84810      0.41051       58.168     
  14.68998  0.213329       3.13380      0.218371      0.84747      0.45622       58.335     
  14.71961  0.202920       2.98690      0.218195      0.84679      0.50059       58.496     
  14.74863  0.187620       2.76714      0.218004      0.84605      0.54416       58.654     
  14.77850  0.167004       2.46806      0.217788      0.84521      0.58912       58.816     
  14.80781  0.142485       2.10989      0.217558      0.84432      0.63339       58.976     
  14.83718  0.114310       1.69603      0.217310      0.84336      0.67786       59.136     
  14.86597  0.838769E-01   1.24691      0.217051      0.84235      0.72158       59.293     
  14.89504  0.510882E-01  0.760961      0.216774      0.84128      0.76588       59.452     
  14.92407  0.171239E-01  0.255558      0.216482      0.84014      0.81024       59.611     
  14.95426 -0.185792E-01 -0.277839      0.216163      0.83891      0.85653       59.776     
  14.98330 -0.523784E-01 -0.784801      0.215843      0.83767      0.90119       59.935     
  15.01247 -0.849278E-01  -1.27498      0.215510      0.83637      0.94620       60.095     
  15.04136 -0.114951      -1.72902      0.215170      0.83505      0.99092       60.254     
  15.07122 -0.142867      -2.15318      0.214808      0.83365       1.0373       60.418     
  15.10051 -0.166461      -2.51365      0.214444      0.83224       1.0829       60.579     
  15.12928 -0.185373      -2.80456      0.214080      0.83082       1.1279       60.737     
  15.15799 -0.199576      -3.02516      0.213710      0.82939       1.1729       60.895     
  15.18728 -0.208893      -3.17251      0.213328      0.82791       1.2189       61.057     
  15.21592 -0.212723      -3.23678      0.212951      0.82644       1.2640       61.215     
  15.24461 -0.211237      -3.22023      0.212571      0.82497       1.3094       61.373     
  15.27310 -0.204537      -3.12392      0.212193      0.82350       1.3545       61.530     
  15.30157 -0.192812      -2.95032      0.211814      0.82203       1.3997       61.688     
  15.33138 -0.175479      -2.69033      0.211417      0.82049       1.4471       61.853     
  15.35974 -0.154613      -2.37481      0.211041      0.81903       1.4923       62.010     
  15.38812 -0.129999      -2.00044      0.210667      0.81758       1.5376       62.167     
  15.41707 -0.101680      -1.56761      0.210288      0.81611       1.5839       62.327     
  15.44605 -0.708241E-01  -1.09395      0.209912      0.81465       1.6303       62.488     
  15.47440 -0.389637E-01 -0.602940      0.209547      0.81323       1.6757       62.645     
  15.50318 -0.575023E-02 -0.891469E-01  0.209179      0.81180       1.7218       62.804     
  15.53152  0.269901E-01  0.419197      0.208820      0.81041       1.7673       62.961     
  15.56056  0.597371E-01  0.929543      0.208456      0.80900       1.8139       63.122     
  15.58892  0.901173E-01   1.40483      0.208103      0.80763       1.8594       63.280     
  15.61715  0.118044       1.84352      0.207753      0.80627       1.9046       63.436     
  15.64516  0.142820       2.23445      0.207407      0.80492       1.9495       63.591     
  15.67350  0.164296       2.57510      0.207057      0.80357       1.9948       63.748     
  15.70180  0.181641       2.85209      0.206706      0.80221       2.0400       63.905     
  15.72974  0.194341       3.05693      0.206357      0.80085       2.0845       64.060     
  15.75773  0.202370       3.18889      0.206004      0.79948       2.1291       64.215     
  15.78561  0.205528       3.24439      0.205647      0.79810       2.1734       64.369     
  15.81408  0.203718       3.22161      0.205275      0.79665       2.2184       64.526     
  15.84191  0.197100       3.12243      0.204902      0.79520       2.2624       64.679     
  15.86971  0.185889       2.95000      0.204517      0.79371       2.3061       64.833     
  15.89779  0.170196       2.70575      0.204115      0.79215       2.3501       64.987     
  15.92581  0.150570       2.39796      0.203697      0.79053       2.3939       65.142     
  15.95397  0.127347       2.03168      0.203258      0.78883       2.4377       65.296     
  15.98115  0.102164       1.63269      0.202814      0.78710       2.4798       65.446     
  16.00879  0.743734E-01   1.19063      0.202338      0.78525       2.5224       65.597     
  16.03640  0.450806E-01  0.722931      0.201837      0.78331       2.5648       65.748     
  16.06506  0.137977E-01  0.221661      0.201285      0.78117       2.6085       65.905     
  16.09218 -0.159288E-01 -0.256329      0.200731      0.77902       2.6497       66.053     
  16.11954 -0.453463E-01 -0.730961      0.200137      0.77671       2.6910       66.202     
  16.14707 -0.737019E-01  -1.19007      0.199502      0.77425       2.7324       66.352     
  16.17564 -0.101123      -1.63573      0.198800      0.77152       2.7750       66.507     
  16.20309 -0.124937      -2.02437      0.198081      0.76873       2.8158       66.656     
  16.23080 -0.145943      -2.36877      0.197308      0.76573       2.8567       66.806     
  16.25782 -0.163046      -2.65078      0.196507      0.76262       2.8963       66.952     
  16.28590 -0.176934      -2.88153      0.195620      0.75918       2.9372       67.104     
  16.31323 -0.186382      -3.04049      0.194703      0.75562       2.9767       67.251     
  16.34027 -0.191621      -3.13114      0.193739      0.75188       3.0156       67.396     
  16.36747 -0.192711      -3.15419      0.192711      0.74789       3.0544       67.542     
  16.39479 -0.189624      -3.10884      0.191618      0.74365       3.0932       67.689     
  16.42222 -0.182442      -2.99610      0.190456      0.73914       3.1318       67.835     
  16.44900 -0.171702      -2.82433      0.189259      0.73449       3.1693       67.978     
  16.47610 -0.157388      -2.59315      0.187981      0.72953       3.2070       68.123     
  16.50366 -0.139651      -2.30476      0.186611      0.72422       3.2450       68.269     
  16.53187 -0.118670      -1.96184      0.185134      0.71849       3.2837       68.419     
  16.55896 -0.963270E-01  -1.59508      0.183643      0.71270       3.3206       68.563     
  16.58599 -0.724385E-01  -1.20146      0.182084      0.70665       3.3571       68.706     
  16.61313 -0.473888E-01 -0.787277      0.180444      0.70028       3.3936       68.849     
  16.64072 -0.214346E-01 -0.356688      0.178701      0.69352       3.4303       68.995     
  16.66726  0.344515E-02  0.574212E-01  0.176951      0.68673       3.4655       69.135     
  16.69420  0.280755E-01  0.468698      0.175101      0.67955       3.5009       69.276     
  16.72104  0.514841E-01  0.860867      0.173183      0.67211       3.5360       69.417     
  16.74836  0.736660E-01   1.23378      0.171155      0.66423       3.5714       69.560     
  16.77514  0.933715E-01   1.56632      0.169092      0.65623       3.6060       69.700     
  16.80188  0.110666       1.85939      0.166959      0.64795       3.6402       69.840     
  16.82909  0.125516       2.11232      0.164713      0.63924       3.6748       69.981     
  16.85588  0.137190       2.31246      0.162430      0.63038       3.7087       70.121     
  16.90739  0.150906       2.55143      0.157841      0.61257       3.7732       70.388     
  16.93812  0.153500       2.60000      0.154981      0.60146       3.8113       70.547     
  16.96953  0.151922       2.57804      0.151966      0.58976       3.8500       70.710     
  17.00127  0.146206       2.48569      0.148828      0.57759       3.8888       70.874     
  17.03234  0.136934       2.33230      0.145671      0.56533       3.9265       71.034     
  17.06332  0.124491       2.12423      0.142442      0.55280       3.9638       71.193     
  17.09434  0.109329       1.86891      0.139132      0.53996       4.0010       71.353     
  17.12580  0.917626E-01   1.57151      0.135699      0.52664       4.0384       71.514     
  17.15634  0.731862E-01   1.25561      0.132298      0.51344       4.0744       71.670     
  17.18729  0.534471E-01  0.918611      0.128792      0.49983       4.1108       71.829     
  17.21968  0.325612E-01  0.560693      0.125447      0.48685       4.1485       71.994     
  17.25034  0.130223E-01  0.224639      0.122791      0.47654       4.1840       72.150     
  17.28142 -0.625746E-02 -0.108138      0.120574      0.46794       4.2198       72.309     
  17.31187 -0.243948E-01 -0.422320      0.118844      0.46122       4.2546       72.463     
  17.34321 -0.420388E-01 -0.729088      0.117505      0.45602       4.2902       72.623     
  17.37401 -0.581448E-01  -1.01021      0.116618      0.45258       4.3250       72.779     
  17.40467 -0.727864E-01  -1.26682      0.116157      0.45080       4.3594       72.934     
  17.43578 -0.860465E-01  -1.50029      0.116127      0.45068       4.3942       73.091     
  17.46647 -0.973998E-01  -1.70123      0.116544      0.45230       4.4282       73.246     
  17.49668 -0.106773      -1.86818      0.117411      0.45566       4.4615       73.398     
  17.52743 -0.114359      -2.00443      0.118793      0.46102       4.4953       73.553     
  17.55817 -0.119865      -2.10460      0.120725      0.46852       4.5288       73.708     
  17.58870 -0.123181      -2.16659      0.123252      0.47833       4.5618       73.861     
  17.61961 -0.124257      -2.18937      0.126509      0.49097       4.5951       74.016     
  17.65012 -0.122973      -2.17049      0.130522      0.50654       4.6277       74.169     
  17.68058 -0.119256      -2.10851      0.135460      0.52571       4.6601       74.322     
  17.71080 -0.113031      -2.00187      0.141462      0.54900       4.6920       74.473     
  17.74109 -0.104089      -1.84665      0.148820      0.57756       4.7237       74.624     
  17.77152 -0.921352E-01  -1.63738      0.157902      0.61280       4.7554       74.775     
  17.80228 -0.766769E-01  -1.36502      0.169273      0.65693       4.7871       74.928     
  17.83210 -0.579486E-01  -1.03335      0.183037      0.71035       4.8176       75.076     
  17.86232 -0.344294E-01 -0.614990      0.200680      0.77882       4.8483       75.226     
  17.89251 -0.519100E-02 -0.928800E-01  0.223407      0.86702       4.8785       75.375     
  17.92263  0.316613E-01  0.567453      0.253371      0.98331       4.9083       75.524     
  17.95331  0.804383E-01   1.44413      0.295085       1.1452       4.9383       75.674     
  17.98388  0.146459       2.63389      0.354522       1.3759       4.9676       75.824     
